time,seconds_elapsed,z,y,x
1654945858177452500,0.29745263671875,1.1301765441894531,-0.2890768051147461,-0.26851752400398254
1654945858197767000,0.317766845703125,1.035205364227295,-0.19115161895751953,-0.1541869044303894
1654945858218171000,0.3381708984375,1.029362678527832,-0.2810182571411133,-0.10091477632522583
1654945858238397200,0.358397216796875,0.5997524261474609,-0.5491275787353516,-0.05220460891723633
1654945858258703000,0.378703125,0.32347536087036133,-0.3603172302246094,0.21604996919631958
1654945858279020500,0.3990205078125,0.3776364326477051,-0.2407207489013672,0.2646324634552002
1654945858299334000,0.419333984375,0.07167816162109375,-0.2327117919921875,0.1236303448677063
1654945858319646500,0.439646484375,-0.4062161445617676,0.03291606903076172,0.2536189556121826
1654945858340017200,0.46001708984375,-0.5770330429077148,0.2972440719604492,0.42723262310028076
1654945858360300000,0.480300048828125,-0.1723628044128418,0.3772611618041992,0.12400978803634644
1654945858380603400,0.500603271484375,0.7411327362060547,0.22167587280273438,-0.5160055756568909
1654945858400994000,0.520994140625,1.3749604225158691,0.06719398498535156,-0.6050634384155273
1654945858421306400,0.541306396484375,1.6037349700927734,0.01251983642578125,-0.5418322086334229
1654945858441533400,0.561533447265625,1.2142295837402344,0.2542600631713867,-0.5501532554626465
1654945858461846800,0.5818466796875,0.22755670547485352,0.2701253890991211,-0.5986209511756897
1654945858482144800,0.602144775390625,-0.3048276901245117,0.1066579818725586,-0.6282480359077454
1654945858502473200,0.62247314453125,-1.1101584434509277,-0.027402877807617188,-0.7529707551002502
1654945858522786000,0.6427861328125,-1.0659446716308594,-0.46329307556152344,-1.047206997871399
1654945858543098000,0.66309814453125,-1.313107967376709,-1.3687810897827148,-1.8423961400985718
1654945858563411000,0.683410888671875,-1.7182364463806152,-1.8575124740600586,-1.382015585899353
1654945858583723000,0.703722900390625,-3.015768051147461,-1.5012168884277344,-1.1761372089385986
1654945858604045600,0.724045654296875,-1.8924813270568848,-0.49710798263549805,-0.201471209526062
1654945858624355800,0.74435595703125,-0.22074031829833984,1.338819980621338,1.6844990253448486
1654945858644647200,0.764647216796875,0.609184741973877,1.2065954208374023,1.237206220626831
1654945858664978000,0.78497802734375,-0.8933515548706055,0.4015660285949707,0.9491891860961914
1654945858685270300,0.805270263671875,-0.07615375518798828,-0.2507615089416504,0.811126172542572
1654945858705597200,0.82559716796875,1.4397478103637695,0.11574125289916992,1.4246752262115479
1654945858725901300,0.8459013671875,3.862593650817871,1.1439118385314941,1.9535198211669922
1654945858746287000,0.866287109375,1.189448356628418,-0.9750404357910156,-0.053820934146642685
1654945858766559000,0.88655908203125,1.8441734313964844,-0.28611230850219727,0.9415509700775146
1654945858786850800,0.906850830078125,2.1944284439086914,-0.5602822303771973,0.9307400584220886
1654945858807169800,0.927169677734375,2.025872230529785,-0.3957548141479492,-0.1778031587600708
1654945858827496400,0.947496337890625,0.9754762649536133,-0.28368139266967773,-0.8917113542556763
1654945858847779600,0.967779541015625,-0.29030704498291016,-0.5111327171325684,-1.499187707901001
1654945858868094200,0.98809423828125,-0.18427181243896484,-0.6522984504699707,-0.21026235818862915
1654945858888411600,1.00841162109375,0.6719646453857422,-0.6567773818969727,0.9127506017684937
1654945858908719900,1.028719970703125,1.9056720733642578,0.690882682800293,1.8236205577850342
1654945858929040600,1.04904052734375,1.1684560775756836,1.0099239349365234,1.5469304323196411
1654945858949344800,1.0693447265625,0.5155973434448242,-0.5679540634155273,1.2371912002563477
1654945858969669400,1.08966943359375,0.8260812759399414,-0.6276822090148926,1.0867007970809937
1654945858990019000,1.11001904296875,0.8449230194091797,-0.5416440963745117,0.25849449634552
1654945859010324500,1.130324462890625,0.010565757751464844,-0.12206077575683594,0.27422046661376953
1654945859030795500,1.15079541015625,0.34474849700927734,0.608332633972168,-0.58660888671875
1654945859050957300,1.170957275390625,0.8004112243652344,0.42381763458251953,-0.41624200344085693
1654945859071246600,1.19124658203125,0.9198417663574219,0.28838300704956055,-0.23327243328094482
1654945859091600000,1.211599853515625,0.5389223098754883,0.14450979232788086,-0.27947545051574707
1654945859111987200,1.2319873046875,-0.6775994300842285,0.08888912200927734,-0.2710951566696167
1654945859132172000,1.252172119140625,-1.2513809204101562,0.022601604461669922,-0.11237907409667969
1654945859152565200,1.272565185546875,-1.2886500358581543,0.13138151168823242,0.4152333736419678
1654945859172822300,1.292822265625,-1.1122016906738281,0.04421234130859375,0.6236331462860107
1654945859193131500,1.313131591796875,-0.8987970352172852,0.06951570510864258,0.5509668588638306
1654945859213439200,1.333439208984375,-0.9050512313842773,0.5959358215332031,0.036704063415527344
1654945859233726200,1.353726318359375,-0.5222573280334473,0.5415916442871094,-0.415752649307251
1654945859254037200,1.374037353515625,0.20142650604248047,0.1426849365234375,-0.033800363540649414
1654945859274357500,1.394357421875,0.6333532333374023,0.31943750381469727,-0.022692441940307617
1654945859294674200,1.414674072265625,1.0698938369750977,-0.02858448028564453,0.062126338481903076
1654945859314994700,1.43499462890625,1.4549942016601562,-0.16868972778320312,0.6119986772537231
1654945859335296300,1.455296142578125,1.9362545013427734,-0.07661962509155273,-0.46668392419815063
1654945859355609900,1.47560986328125,0.49800586700439453,0.2560429573059082,-0.9731801152229309
1654945859375972000,1.49597216796875,0.05706501007080078,0.8032102584838867,-0.016285300254821777
1654945859396229600,1.516229736328125,-0.10237407684326172,-0.10239219665527344,0.15630215406417847
1654945859416550000,1.5365498046875,0.3450031280517578,-0.6925702095031738,-0.045033276081085205
1654945859436869600,1.55686962890625,-0.019637107849121094,-0.38547468185424805,0.3223365843296051
1654945859457168000,1.57716796875,-0.04036235809326172,0.228851318359375,1.172298550605774
1654945859477518600,1.5975185546875,0.6471595764160156,0.3787503242492676,1.8024444580078125
1654945859497834000,1.617833984375,0.8089637756347656,-0.41448354721069336,0.7314363718032837
1654945859518108700,1.638108642578125,0.2626628875732422,-0.3258018493652344,0.42677170038223267
1654945859538429400,1.658429443359375,0.019071578979492188,-0.03613090515136719,0.1762048602104187
1654945859558752300,1.678752197265625,0.21235942840576172,0.2120509147644043,0.24171417951583862
1654945859579050800,1.69905078125,0.7309064865112305,-0.2323164939880371,-0.4662572145462036
1654945859599381200,1.71938134765625,1.3379831314086914,-0.7422752380371094,-1.6936802864074707
1654945859619786800,1.739786865234375,1.2088003158569336,-0.7459087371826172,-1.786989450454712
1654945859640034300,1.760034423828125,1.1392526626586914,-0.7028641700744629,-1.1354061365127563
1654945859660355300,1.780355224609375,1.1796073913574219,0.20002365112304688,-0.9691964983940125
1654945859680642600,1.800642578125,1.466470718383789,-0.3448934555053711,-1.4928982257843018
1654945859701206500,1.82120654296875,0.4856700897216797,-1.2572503089904785,-1.5545127391815186
1654945859721276000,1.84127587890625,0.11791038513183594,-0.5829815864562988,-0.1084851622581482
1654945859741582300,1.861582275390625,0.06646537780761719,-0.6118855476379395,0.5652592182159424
1654945859761995500,1.88199560546875,-0.8374876976013184,-1.246969223022461,-0.4078638553619385
1654945859782261500,1.902261474609375,-0.9774746894836426,0.028846263885498047,0.11761796474456787
1654945859802509000,1.922509033203125,-1.7107315063476562,-0.2418365478515625,-1.0306848287582397
1654945859822812700,1.942812744140625,-1.1833343505859375,-0.1840372085571289,-0.5798344612121582
1654945859843136300,1.96313623046875,-0.1657414436340332,0.3337593078613281,-0.4611475467681885
1654945859863430000,1.983429931640625,-0.1670689582824707,0.2389979362487793,-1.0226516723632812
1654945859883745800,2.003745849609375,0.23620176315307617,-0.02177286148071289,-1.5222667455673218
1654945859904073000,2.024072998046875,0.29375362396240234,-0.1964273452758789,-1.5370465517044067
1654945859924369000,2.044368896484375,-0.2698969841003418,-0.06965970993041992,-1.566559910774231
1654945859944700700,2.06470068359375,-0.08043193817138672,0.06645870208740234,-1.4875558614730835
1654945859965105400,2.08510546875,0.2665901184082031,-0.2052297592163086,-1.1858227252960205
1654945859985306600,2.105306640625,1.3721208572387695,-0.9599270820617676,-0.8617282509803772
1654945860005625600,2.12562548828125,1.5844087600708008,-1.0461626052856445,-0.10689210891723633
1654945860025975300,2.145975341796875,1.0985312461853027,-0.9473404884338379,0.44841474294662476
1654945860046305500,2.166305419921875,-0.05412149429321289,-0.5270757675170898,0.2344266176223755
1654945860066563000,2.18656298828125,-1.4867358207702637,0.06742143630981445,-0.13718336820602417
1654945860086902000,2.206902099609375,-1.7069969177246094,0.29294729232788086,-0.30150485038757324
1654945860107220000,2.227219970703125,-0.7126598358154297,0.27619457244873047,-1.0228866338729858
1654945860127523000,2.247523193359375,0.8422398567199707,0.09678316116333008,-1.2543811798095703
1654945860147834600,2.267834716796875,1.19580078125,-0.07053089141845703,-0.9437393546104431
1654945860168166000,2.288165771484375,0.2245783805847168,0.025688648223876953,-0.896548330783844
1654945860188457500,2.30845751953125,-0.7584314346313477,0.13349056243896484,-1.1528096199035645
1654945860208777700,2.32877783203125,-1.3900508880615234,0.09586763381958008,-0.9532095193862915
1654945860229091000,2.349091064453125,-1.5393400192260742,0.1705784797668457,-0.2399144172668457
1654945860249406500,2.369406494140625,-1.3005685806274414,0.08978843688964844,-0.16390186548233032
1654945860269783000,2.389782958984375,-0.6082649230957031,-0.06860923767089844,-0.6773645877838135
1654945860290084400,2.41008447265625,0.1405162811279297,-0.2196063995361328,-1.6386020183563232
1654945860310391300,2.430391357421875,-0.08587884902954102,-0.27630090713500977,-1.1237214803695679
1654945860330701000,2.450701171875,-1.091115951538086,-0.2788090705871582,0.6538762450218201
1654945860351005400,2.47100537109375,-1.1048393249511719,0.24548816680908203,0.6096222400665283
1654945860371313000,2.49131298828125,-0.9350981712341309,0.30872392654418945,0.1770140528678894
1654945860391597600,2.51159765625,-0.5983552932739258,0.23259782791137695,-0.20232200622558594
1654945860411984100,2.531984130859375,-0.1320204734802246,0.3859233856201172,-0.8056594729423523
1654945860432211200,2.552211181640625,0.021607398986816406,0.28142738342285156,-0.7325243949890137
1654945860452541700,2.572541748046875,-0.18944501876831055,0.2294926643371582,-0.08327651023864746
1654945860472842800,2.5928427734375,-0.7627677917480469,0.2020587921142578,0.39663219451904297
1654945860493170200,2.613170166015625,-1.2095303535461426,0.2276291847229004,0.40895986557006836
1654945860513473500,2.6334736328125,-1.677931308746338,0.09395456314086914,0.7437725067138672
1654945860533829400,2.653829345703125,-1.4170656204223633,0.4667067527770996,1.2408860921859741
1654945860554148400,2.6741484375,-1.3308696746826172,0.47621870040893555,1.5370289087295532
1654945860574328000,2.694328125,-1.2135415077209473,0.5063238143920898,1.9376953840255737
1654945860594725400,2.714725341796875,-1.004659652709961,0.5470094680786133,2.503645420074463
1654945860614905000,2.734905029296875,-0.6701359748840332,0.6115293502807617,3.2255449295043945
1654945860635356000,2.75535595703125,-0.2207341194152832,0.7506842613220215,4.064070701599121
1654945860655665700,2.775665771484375,-2.6393847465515137,-2.9173974990844727,5.881006240844727
1654945860676002300,2.796002197265625,-2.314394950866699,-3.054975748062134,7.277637004852295
1654945860696263000,2.816262939453125,-1.358231782913208,-2.4782209396362305,9.299190521240234
1654945860716622000,2.8366220703125,0.857701301574707,-2.995953321456909,10.582477569580078
1654945860736931800,2.856931884765625,1.9338418245315552,-4.664437770843506,9.197175025939941
1654945860757259800,2.877259765625,1.6103050708770752,-6.04289436340332,4.943138122558594
1654945860777623600,2.89762353515625,2.520991086959839,-8.70284652709961,2.0732102394104004
1654945860797865700,2.91786572265625,3.868168354034424,-8.296025276184082,2.3245506286621094
1654945860818155300,2.9381552734375,3.4171664714813232,-7.865598201751709,0.39881038665771484
1654945860838510000,2.958510009765625,0.2582676410675049,-8.057538986206055,0.00029277801513671875
1654945860858850800,2.978850830078125,-0.7027642726898193,-7.266294956207275,0.03468799591064453
1654945860879113500,2.999113525390625,-0.3635585308074951,-7.4015302658081055,-0.555152416229248
1654945860899425800,3.01942578125,-1.4573428630828857,-7.015824317932129,-1.8235139846801758
1654945860919743200,3.0397431640625,-5.436415195465088,-5.758697509765625,-4.4018073081970215
1654945860940063000,3.06006298828125,-9.603470802307129,-6.230434417724609,-10.475835800170898
1654945860960339200,3.080339111328125,-7.88602876663208,-5.9177350997924805,-14.108260154724121
1654945860980651500,3.100651611328125,-3.8659517765045166,-5.580052375793457,-11.677671432495117
1654945861000989700,3.12098974609375,-0.6150400638580322,-6.41163444519043,-10.61935806274414
1654945861021289200,3.141289306640625,-1.139866590499878,-6.000049591064453,-11.923711776733398
1654945861041592800,3.1615927734375,-2.9226303100585938,-4.235536575317383,-11.932951927185059
1654945861061901600,3.181901611328125,-3.223546028137207,-2.6655960083007812,-7.224094390869141
1654945861082237200,3.2022373046875,-2.23482084274292,-1.3947429656982422,-1.2056584358215332
1654945861102556400,3.222556396484375,-2.437465190887451,-0.31781578063964844,1.7170109748840332
1654945861122840300,3.24284033203125,-1.1606175899505615,0.9905095100402832,1.4463653564453125
1654945861143167500,3.26316748046875,2.200906276702881,1.2334856986999512,1.7651996612548828
1654945861163495400,3.283495361328125,2.3936991691589355,1.294438362121582,1.5675268173217773
1654945861183804400,3.303804443359375,3.9693984985351562,2.5990405082702637,-0.45467138290405273
1654945861204132900,3.3241328125,2.095911979675293,2.0021610260009766,-0.865509033203125
1654945861224446500,3.344446533203125,-1.482856273651123,4.834376335144043,2.6609439849853516
1654945861244752400,3.36475244140625,-5.034609317779541,6.62314510345459,3.6442458629608154
1654945861265046300,3.38504638671875,-3.815565586090088,5.335370063781738,1.5621452331542969
1654945861285373000,3.405373046875,0.2064908742904663,4.895990371704102,1.0072202682495117
1654945861305681200,3.42568115234375,3.2944602966308594,4.790639877319336,2.6265227794647217
1654945861326009000,3.446009033203125,3.0853660106658936,4.847437858581543,2.4050347805023193
1654945861346321000,3.46632080078125,3.02980637550354,4.908773422241211,2.2319037914276123
1654945861366624500,3.48662451171875,-2.7860279083251953,5.665471076965332,-0.8120927810668945
1654945861386957600,3.50695751953125,-1.415615200996399,2.8341007232666016,-1.6213655471801758
1654945861407261000,3.527260986328125,-0.5326025485992432,2.6047568321228027,-0.2967195510864258
1654945861427562500,3.5475625,1.0450806617736816,0.7852182388305664,-1.8357038497924805
1654945861447872000,3.5678720703125,1.9325108528137207,-1.0165491104125977,-4.245488166809082
1654945861468051500,3.588051513671875,1.152754306793213,-0.5877799987792969,-3.6424331665039062
1654945861488502800,3.608502685546875,1.4109916687011719,-0.5007028579711914,-3.653019428253174
1654945861508682500,3.6286826171875,1.710462212562561,-0.4308938980102539,-3.6289443969726562
1654945861529134800,3.649134765625,2.077692985534668,-0.3675107955932617,-3.591435432434082
1654945861549444400,3.6694443359375,2.4190211296081543,-0.2716178894042969,-3.6588478088378906
1654945861569783300,3.689783203125,-0.12402111291885376,2.30610990524292,-0.2695732116699219
1654945861590069000,3.710069091796875,0.4326893091201782,0.5510711669921875,-3.1161203384399414
1654945861610380800,3.730380859375,0.04341787099838257,0.49094390869140625,-1.9350471496582031
1654945861630703400,3.750703369140625,0.34469351172447205,-0.01898670196533203,-1.3613758087158203
1654945861651028500,3.771028564453125,0.8494205474853516,-1.304062843322754,-3.0484859943389893
1654945861671301000,3.791301025390625,1.5514671802520752,-2.166327476501465,-3.808579444885254
1654945861691629300,3.81162939453125,1.3853931427001953,-1.9675445556640625,-2.4286112785339355
1654945861711963400,3.83196337890625,0.7668328285217285,-1.1602067947387695,-0.2727365493774414
1654945861732266800,3.852266845703125,0.5374380350112915,-0.8573627471923828,0.45102691650390625
1654945861752568300,3.872568359375,0.4607824385166168,0.00194549560546875,0.6508901119232178
1654945861772883200,3.89288330078125,0.7561193704605103,-0.3244752883911133,1.1160032749176025
1654945861793175300,3.91317529296875,1.2451872825622559,0.574833869934082,1.7204394340515137
1654945861813509600,3.933509521484375,1.7347335815429688,2.3010058403015137,1.9553699493408203
1654945861833822700,3.95382275390625,1.7928931713104248,3.9644837379455566,2.0734753608703613
1654945861854120700,3.97412060546875,1.8219788074493408,5.486140251159668,1.928152322769165
1654945861874453500,3.99445361328125,1.9616124629974365,5.598073959350586,1.444273591041565
1654945861894767400,4.014767333984375,1.008934736251831,5.726300239562988,1.2639200687408447
1654945861915075000,4.035074951171875,0.08280003070831299,5.592899799346924,1.0083224773406982
1654945861935393800,4.055393798828125,0.029221773147583008,3.877473831176758,0.04933571815490723
1654945861955703800,4.075703857421875,2.0593531131744385,2.4787511825561523,-0.3083003759384155
1654945861976031200,4.09603125,4.478067874908447,1.0046682357788086,-0.22392034530639648
1654945861996320800,4.11632080078125,3.2202999591827393,-1.498727798461914,0.8688960671424866
1654945862016647000,4.13664697265625,2.878286361694336,-2.8725452423095703,0.20865628123283386
1654945862037010000,4.157010009765625,0.5008523464202881,-2.4267520904541016,-1.062368392944336
1654945862057323000,4.177322998046875,-2.861532688140869,-2.1330108642578125,-0.8541801571846008
1654945862077640200,4.19764013671875,1.2320609092712402,-2.504222869873047,-1.0117722749710083
1654945862097883600,4.217883544921875,2.488426446914673,-2.5768203735351562,-1.9283735752105713
1654945862118291700,4.238291748046875,2.211672067642212,-1.3826618194580078,-2.3126156330108643
1654945862138561300,4.258561279296875,0.7874208688735962,-0.3835287094116211,-1.3975486755371094
1654945862158845200,4.27884521484375,-0.629723072052002,-0.7757596969604492,-1.5203404426574707
1654945862179193600,4.299193603515625,0.9607498645782471,-1.229079246520996,-1.9481232166290283
1654945862199502000,4.319502197265625,-0.04229593276977539,-1.198568344116211,-1.046647548675537
1654945862219757800,4.3397578125,0.05192160606384277,-1.2593355178833008,-0.3730279505252838
1654945862240074800,4.36007470703125,0.07320976257324219,-1.252096176147461,0.047178566455841064
1654945862260400400,4.380400390625,0.16579008102416992,0.2743692398071289,-0.05516695976257324
1654945862280710100,4.400710205078125,0.8638132810592651,1.315028190612793,0.3128736615180969
1654945862301025800,4.42102587890625,1.118004560470581,1.0494165420532227,-0.3921874165534973
1654945862321337900,4.441337890625,0.8733673095703125,0.7982492446899414,-1.5192190408706665
1654945862341659100,4.4616591796875,0.8971073627471924,0.6667070388793945,-2.6337499618530273
1654945862361942300,4.4819423828125,0.7865808010101318,1.1582374572753906,-2.5431761741638184
1654945862382257000,4.5022568359375,0.9710252285003662,1.3983964920043945,-2.241185188293457
1654945862402600000,4.522599853515625,1.6292680501937866,1.5220212936401367,-1.4170520305633545
1654945862422916400,4.542916259765625,1.8718594312667847,1.3161544799804688,-0.8064008951187134
1654945862443242500,4.563242431640625,1.8529486656188965,0.9613275527954102,-0.3518500328063965
1654945862463543000,4.58354296875,1.7195695638656616,0.822998046875,0.22939127683639526
1654945862483828200,4.603828125,1.4111477136611938,0.9109601974487305,0.6543384194374084
1654945862504153600,4.624153564453125,0.9367491006851196,1.2118291854858398,0.6954484581947327
1654945862524457000,4.64445703125,0.5974347591400146,1.3823509216308594,0.09169995784759521
1654945862544768500,4.6647685546875,0.7423396110534668,1.4849262237548828,-0.848175048828125
1654945862565082400,4.685082275390625,1.1656819581985474,1.8548235893249512,-1.2692205905914307
1654945862585391900,4.705391845703125,1.5846595764160156,1.996471881866455,-1.1233924627304077
1654945862605707500,4.72570751953125,0.8508651256561279,0.9707012176513672,-0.6178349256515503
1654945862626020600,4.7460205078125,0.5850427150726318,-0.26400089263916016,0.16689017415046692
1654945862646329000,4.7663291015625,1.076147198677063,-0.6104021072387695,0.8759763240814209
1654945862666675500,4.786675537109375,1.1181459426879883,0.02404022216796875,1.3055647611618042
1654945862686993200,4.8069931640625,1.5017026662826538,-0.06098365783691406,1.004382848739624
1654945862707274500,4.8272744140625,1.9101721048355103,-0.4688882827758789,0.12842968106269836
1654945862727612400,4.8476123046875,1.5665369033813477,-0.8017787933349609,-0.598110556602478
1654945862747933000,4.867932861328125,0.9091343283653259,-0.3005800247192383,-0.15883615612983704
1654945862768238800,4.88823876953125,0.09491705894470215,1.0421228408813477,-0.005941301584243774
1654945862788544000,4.9085439453125,-0.11516153812408447,1.7706432342529297,-0.852173924446106
1654945862808858000,4.928858154296875,0.5510274171829224,1.7997112274169922,-1.9190287590026855
1654945862829166600,4.94916650390625,1.6103055477142334,1.5482959747314453,-2.22186279296875
1654945862849482000,4.96948193359375,2.8626418113708496,1.589259147644043,-1.8142116069793701
1654945862869803500,4.989803466796875,3.252501964569092,1.6409740447998047,-0.8712198734283447
1654945862890194200,5.010194091796875,1.800692081451416,2.032414436340332,-0.9296551942825317
1654945862910450700,5.03045068359375,0.5642867088317871,2.0941624641418457,-1.2628690004348755
1654945862930743600,5.05074365234375,0.3169248700141907,1.4984922409057617,-1.8445744514465332
1654945862951051300,5.07105126953125,0.6382668018341064,0.43372249603271484,-2.427278995513916
1654945862971369000,5.091368896484375,0.581254243850708,-2.121464729309082,-2.6186327934265137
1654945862991683300,5.111683349609375,-0.2710649371147156,-6.288139343261719,-3.6769819259643555
1654945863011996000,5.131995849609375,1.352876901626587,0.6925811767578125,-2.5163161754608154
1654945863032309500,5.1523095703125,1.4143176078796387,1.8704299926757812,-1.268784761428833
1654945863052620500,5.17262060546875,1.5442066192626953,0.6998586654663086,-0.5253506302833557
1654945863072948200,5.1929482421875,0.9159172773361206,0.32154273986816406,0.38837265968322754
1654945863093260800,5.2132607421875,0.3263423442840576,0.7691650390625,1.196251392364502
1654945863113647900,5.23364794921875,0.10747396945953369,0.9523086547851562,1.2613561153411865
1654945863133917700,5.253917724609375,-0.30537813901901245,0.9087142944335938,0.8276415467262268
1654945863154267100,5.27426708984375,-0.2840784788131714,0.6867170333862305,-0.004943475127220154
1654945863174595300,5.29459521484375,0.08439338207244873,0.6365079879760742,-0.3473706543445587
1654945863194887700,5.3148876953125,0.20164692401885986,0.8766536712646484,-0.43443357944488525
1654945863215333600,5.335333740234375,0.37460875511169434,0.8390913009643555,-0.7737075686454773
1654945863235469600,5.355469482421875,0.4385538101196289,0.7000312805175781,-1.031394124031067
1654945863255837000,5.3758369140625,0.22749614715576172,0.7404050827026367,-1.0976892709732056
1654945863276130600,5.396130615234375,-0.24069178104400635,0.5009651184082031,-1.1261996030807495
1654945863296458800,5.416458740234375,-0.4253981113433838,0.4383077621459961,-1.191247820854187
1654945863316780000,5.436780029296875,-0.21414899826049805,0.6363115310668945,-1.4566521644592285
1654945863337163300,5.457163330078125,-0.0017331838607788086,0.4058055877685547,-1.7719066143035889
1654945863357330700,5.47733056640625,-0.21416854858398438,0.14644718170166016,-1.7206356525421143
1654945863377678800,5.497678955078125,-0.7886329889297485,0.4369354248046875,-1.220094919204712
1654945863398097000,5.518096923828125,-1.330592393875122,0.5177145004272461,-0.8715377449989319
1654945863418325500,5.538325439453125,-1.1476781368255615,0.1817636489868164,-0.518836498260498
1654945863438736600,5.558736572265625,-0.439510703086853,0.22666168212890625,-0.8061286807060242
1654945863458949000,5.57894921875,-0.0752248764038086,0.15313243865966797,-1.3584036827087402
1654945863479225300,5.599225341796875,-0.6142200231552124,0.6608362197875977,-0.9087392091751099
1654945863499516200,5.61951611328125,-1.5171923637390137,0.8105430603027344,-0.759416937828064
1654945863519885300,5.63988525390625,-1.9951766729354858,0.09841632843017578,-1.2032800912857056
1654945863540204300,5.660204345703125,-1.5604666471481323,-0.6723794937133789,-1.776962161064148
1654945863560594000,5.680593994140625,-1.000374436378479,-1.5548667907714844,-2.243643045425415
1654945863580913000,5.700912841796875,-1.0234735012054443,-2.046236038208008,-2.570941925048828
1654945863601174000,5.721174072265625,-1.7702378034591675,-1.1339492797851562,-2.1710352897644043
1654945863621645000,5.74164501953125,-2.3334522247314453,0.08812522888183594,-0.6767525672912598
1654945863641768000,5.761767822265625,-2.127431869506836,0.8240852355957031,0.936728835105896
1654945863662069500,5.782069580078125,-0.8895270228385925,1.2567262649536133,0.7202849388122559
1654945863682403300,5.8024033203125,0.6226949095726013,0.7319860458374023,-0.8605673313140869
1654945863702774300,5.822774169921875,1.4973517656326294,-0.7197046279907227,-1.2520099878311157
1654945863723000600,5.84300048828125,2.9867806434631348,-2.2923583984375,-1.26810884475708
1654945863743328300,5.863328369140625,3.302461624145508,-1.940922737121582,-2.225531578063965
1654945863763751000,5.8837509765625,2.6833274364471436,-0.651646614074707,-3.5924487113952637
1654945863783988200,5.90398828125,2.6684889793395996,0.5611610412597656,-4.033437728881836
1654945863804337400,5.92433740234375,3.036109209060669,1.1583261489868164,-3.8573408126831055
1654945863824605700,5.944605712890625,2.9412426948547363,1.2914905548095703,-3.386962890625
1654945863845033200,5.965033203125,1.9782787561416626,1.0823087692260742,-2.7896649837493896
1654945863865351400,5.985351318359375,1.8343099355697632,0.7372646331787109,-1.9877313375473022
1654945863885589500,6.005589599609375,1.9657478332519531,0.5424928665161133,-1.2548816204071045
1654945863905834800,6.025834716796875,1.878056287765503,0.34253597259521484,-0.9441256523132324
1654945863926141700,6.0461416015625,1.3315443992614746,0.1348257064819336,-0.6108977794647217
1654945863946436900,6.066436767578125,0.9524627923965454,0.12497425079345703,-0.2900298833847046
1654945863966831400,6.086831298828125,1.1182739734649658,-0.024768829345703125,-0.26764094829559326
1654945863987067400,6.1070673828125,1.9310524463653564,-0.3114643096923828,-0.0005276203155517578
1654945864007446800,6.12744677734375,2.5525145530700684,-0.3509950637817383,0.8397048711776733
1654945864027716600,6.147716552734375,2.392594814300537,-0.00677490234375,1.3754968643188477
1654945864048044000,6.1680439453125,2.231468439102173,0.6623067855834961,1.4812239408493042
1654945864068343000,6.188343017578125,2.080453872680664,1.1163692474365234,1.2616747617721558
1654945864088597000,6.208596923828125,1.9073591232299805,1.1884803771972656,1.092563509941101
1654945864108882700,6.228882568359375,1.9162956476211548,1.3132572174072266,1.1045498847961426
1654945864129232400,6.249232421875,1.8043748140335083,1.544318675994873,0.9323667287826538
1654945864149537300,6.269537353515625,1.2782195806503296,1.9429936408996582,0.5192487239837646
1654945864169856300,6.289856201171875,0.7268006801605225,2.1844377517700195,0.13183212280273438
1654945864190208500,6.31020849609375,0.34813737869262695,2.086857795715332,-0.36550354957580566
1654945864210469600,6.3304697265625,-0.09461116790771484,1.8616561889648438,-0.8037371039390564
1654945864230764300,6.350764404296875,-0.4827840328216553,1.5651636123657227,-0.6855646967887878
1654945864251080000,6.371079833984375,-0.7842426300048828,1.0887212753295898,-0.08367717266082764
1654945864271417600,6.39141748046875,-1.1720097064971924,0.6023979187011719,0.45494961738586426
1654945864291716000,6.411716064453125,-1.2285125255584717,0.18560028076171875,0.455281138420105
1654945864312033500,6.432033447265625,-1.6163806915283203,0.17115497589111328,0.5442513227462769
1654945864332385800,6.4523857421875,-1.662346601486206,0.46223926544189453,1.0163586139678955
1654945864352682800,6.472682861328125,-0.8276233673095703,0.44180774688720703,1.5907295942306519
1654945864372958200,6.492958251953125,0.2576179504394531,0.6185941696166992,1.9177392721176147
1654945864393293600,6.51329345703125,0.30900025367736816,0.46660900115966797,1.7617602348327637
1654945864413610500,6.533610595703125,-0.3240375518798828,-0.42839908599853516,1.5006558895111084
1654945864433924400,6.55392431640625,-0.692324161529541,-1.2019786834716797,1.1855881214141846
1654945864454240500,6.574240478515625,-0.32129430770874023,-0.671478271484375,0.15429508686065674
1654945864474585900,6.5945859375,-0.377246618270874,-0.9021949768066406,0.028515100479125977
1654945864494867200,6.6148671875,0.8988298773765564,-0.4460935592651367,0.042231857776641846
1654945864515188500,6.6351884765625,2.177335739135742,2.094785690307617,-0.24734903872013092
1654945864535500000,6.6555,4.325082778930664,3.386612892150879,0.5480271577835083
1654945864555882800,6.6758828125,3.621412515640259,2.249746322631836,1.2822327613830566
1654945864576167700,6.696167724609375,1.6479748487472534,0.7136783599853516,-0.6834930181503296
1654945864596480300,6.716480224609375,2.24822998046875,0.489532470703125,-2.626474618911743
1654945864616732400,6.736732421875,2.9662137031555176,0.4524068832397461,-2.655015230178833
1654945864637255400,6.75725537109375,1.5750561952590942,0.9207773208618164,-0.9441058039665222
1654945864657431300,6.777431396484375,1.1311112642288208,0.4920988082885742,-0.05401019752025604
1654945864677723000,6.797722900390625,-0.3049154579639435,-0.964970588684082,-1.1474260091781616
1654945864698048800,6.818048828125,-0.8963456749916077,-1.2727031707763672,-1.6597753763198853
1654945864718383000,6.838383056640625,-0.8913095593452454,0.34740638732910156,-0.38663241267204285
1654945864738730200,6.858730224609375,-0.6818084716796875,1.4551372528076172,0.5424532294273376
1654945864759133700,6.8791337890625,-0.09030908346176147,1.196725845336914,0.18340972065925598
1654945864779314200,6.899314208984375,0.7175487279891968,0.7045631408691406,-1.465676188468933
1654945864799830000,6.919830078125,1.096017837524414,0.42833709716796875,-2.540367364883423
1654945864820192300,6.940192138671875,1.25399649143219,0.25530147552490234,-2.172222137451172
1654945864840419300,6.96041943359375,0.8430112600326538,0.5428028106689453,-1.0331354141235352
1654945864860572000,6.980572021484375,-0.2715970277786255,0.8046112060546875,0.35043779015541077
1654945864880940800,7.00094091796875,-0.7992785573005676,0.6000165939331055,1.1528400182724
1654945864901295600,7.021295654296875,-0.5371713638305664,0.6658267974853516,1.1035857200622559
1654945864921501700,7.041501708984375,0.24915122985839844,0.9533824920654297,0.46803149580955505
1654945864941777700,7.061777587890625,0.30159318447113037,0.8427886962890625,0.08629181981086731
1654945864962133200,7.08213330078125,-0.3486441373825073,0.48738861083984375,0.15151739120483398
1654945864982640600,7.102640625,-0.9255881309509277,0.14475440979003906,0.26679450273513794
1654945865002694000,7.12269384765625,-0.9595046043395996,-0.014956474304199219,0.23119321465492249
1654945865023055000,7.14305517578125,-0.8350511789321899,0.24188995361328125,0.022091448307037354
1654945865043524000,7.163524169921875,-0.9714063405990601,0.09650993347167969,-0.7060033082962036
1654945865063680800,7.1836806640625,-1.5164533853530884,-0.8321914672851562,-2.1455063819885254
1654945865084028000,7.20402783203125,-1.759774923324585,-1.5741167068481445,-3.4883737564086914
1654945865104352800,7.224352783203125,-2.7041633129119873,-2.064554214477539,-3.923283100128174
1654945865124697300,7.244697265625,-4.692056179046631,-1.9536409378051758,-2.6359598636627197
1654945865144917000,7.2649169921875,-5.33140230178833,-0.7759037017822266,-0.027678728103637695
1654945865165286100,7.2852861328125,-4.021003246307373,-1.358530044555664,0.851915180683136
1654945865185528300,7.3055283203125,-3.3272197246551514,-2.741466522216797,-1.4333271980285645
1654945865206057000,7.326056884765625,-3.426119804382324,-4.393775939941406,-3.274312973022461
1654945865226174500,7.346174560546875,-1.315056562423706,-3.516329765319824,-3.270954132080078
1654945865246490000,7.366489990234375,2.091601848602295,0.007985115051269531,-1.0947381258010864
1654945865266896600,7.386896728515625,2.7916622161865234,2.126957893371582,2.8709592819213867
1654945865287127300,7.407127197265625,0.5817437171936035,-1.2566728591918945,2.126478672027588
1654945865307447000,7.427447021484375,1.4922269582748413,-4.183143615722656,-0.2396533489227295
1654945865327745000,7.4477451171875,4.054596900939941,-3.327638626098633,-1.6586544513702393
1654945865348084200,7.468084228515625,5.380897521972656,-0.3710451126098633,-1.3725024461746216
1654945865368336100,7.488336181640625,5.135268688201904,1.9667105674743652,-0.5953778028488159
1654945865388694300,7.5086943359375,3.7438292503356934,1.4686784744262695,-0.5945063829421997
1654945865408986600,7.528986572265625,2.182173013687134,-0.08470630645751953,-1.016860008239746
1654945865429290200,7.549290283203125,1.5143239498138428,0.03503227233886719,-1.0819957256317139
1654945865449775900,7.56977587890625,1.891486406326294,1.1117048263549805,-1.224807858467102
1654945865469912000,7.589912109375,2.9408836364746094,1.5902328491210938,-1.3740785121917725
1654945865490232800,7.61023291015625,3.960695743560791,1.5596566200256348,-1.3040006160736084
1654945865510559700,7.630559814453125,4.327376365661621,1.3909597396850586,-1.16441011428833
1654945865530876000,7.6508759765625,4.1596198081970215,0.7183380126953125,-1.086242437362671
1654945865551122400,7.671122314453125,3.043764114379883,0.6150894165039062,-0.4087672233581543
1654945865571488000,7.691488037109375,2.1948814392089844,1.1936192512512207,0.09347915649414062
1654945865591782100,7.7117822265625,2.110898733139038,1.889843463897705,0.4169808626174927
1654945865612134100,7.732134033203125,2.318645477294922,2.049398422241211,0.30665791034698486
1654945865632423000,7.7524228515625,2.634584903717041,1.8080801963806152,0.5059274435043335
1654945865652724700,7.772724853515625,3.17561936378479,1.7272849082946777,1.0863169431686401
1654945865673031400,7.793031494140625,3.5005791187286377,1.5715641975402832,1.7095675468444824
1654945865693344000,7.813343994140625,2.4448602199554443,1.6371707916259766,1.5731300115585327
1654945865713681700,7.833681640625,0.32424497604370117,2.4988021850585938,0.9039994478225708
1654945865734002200,7.854002197265625,-2.8351340293884277,1.8018789291381836,0.8420042991638184
1654945865754355500,7.87435546875,-5.453449249267578,-0.3246345520019531,1.3693530559539795
1654945865774662400,7.894662353515625,-5.004798889160156,-1.3197689056396484,1.2967225313186646
1654945865794964500,7.914964599609375,-3.413896083831787,-0.7328023910522461,0.549513578414917
1654945865815300900,7.93530078125,-2.277175188064575,-0.1875762939453125,0.2291191816329956
1654945865835587300,7.95558740234375,-0.9084889888763428,0.78948974609375,0.18826782703399658
1654945865855934700,7.975934814453125,-0.16561102867126465,1.8716106414794922,0.6970988512039185
1654945865876159200,7.9961591796875,0.2260892391204834,-0.1562662124633789,2.1332619190216064
1654945865896484000,8.016484130859375,0.14477884769439697,-2.3494091033935547,2.0951294898986816
1654945865916922000,8.036922119140625,1.2935314178466797,-3.1671791076660156,1.9114259481430054
1654945865937135000,8.057135009765625,0.676732063293457,-4.0855865478515625,0.3601759076118469
1654945865957622300,8.077622314453125,1.4294880628585815,-1.544753074645996,-0.9757735729217529
1654945865978024000,8.09802392578125,5.215723037719727,3.380467414855957,-1.442773461341858
1654945865998182100,8.11818212890625,8.054657936096191,6.076059341430664,0.7137140035629272
1654945866018377000,8.138376953125,3.7946245670318604,3.5732531547546387,2.020071029663086
1654945866038681000,8.15868115234375,-0.7915757894515991,-0.2689065933227539,-1.9005208015441895
1654945866059079200,8.1790791015625,-0.8431490659713745,-1.7643957138061523,-5.080817699432373
1654945866079387000,8.199386962890625,0.2363031506538391,-0.4463367462158203,-2.878843069076538
1654945866099798300,8.21979833984375,0.20339787006378174,0.04118061065673828,-0.023657292127609253
1654945866120011300,8.24001123046875,-0.4211607575416565,-0.09424018859863281,0.03292560577392578
1654945866140339700,8.260339599609376,-0.056028902530670166,0.3362760543823242,-1.305763840675354
1654945866160594400,8.280594482421876,1.1859185695648193,0.7593879699707031,-1.5755571126937866
1654945866180853800,8.300853759765625,1.4768095016479492,1.064310073852539,-0.5423797965049744
1654945866201155000,8.321155029296875,1.1301732063293457,0.8378114700317383,-0.33856093883514404
1654945866221478700,8.341478759765625,0.6020938158035278,0.5116167068481445,-0.5699090957641602
1654945866241860600,8.361860595703124,0.7417552471160889,0.6594018936157227,-0.15437756478786469
1654945866262192000,8.382192138671876,1.2820825576782227,1.0456533432006836,0.020626887679100037
1654945866282462700,8.402462646484375,1.022230625152588,1.0900154113769531,-0.19889327883720398
1654945866302745900,8.422745849609376,0.44502949714660645,1.0771608352661133,-0.02758362889289856
1654945866323171300,8.44317138671875,-0.2684004306793213,0.8092250823974609,0.03718304634094238
1654945866343391200,8.46339111328125,-0.5609638690948486,0.6705350875854492,-0.26737380027770996
1654945866363694800,8.48369482421875,-0.5069928169250488,0.5585346221923828,-0.5125279426574707
1654945866384022500,8.5040224609375,-0.8466342687606812,0.511500358581543,-0.8692818880081177
1654945866404297500,8.52429736328125,-1.5217567682266235,0.07126998901367188,-1.4688829183578491
1654945866424600000,8.54460009765625,-1.6308094263076782,-0.6760587692260742,-1.8378264904022217
1654945866444934000,8.564933837890624,-1.428774118423462,-1.1988534927368164,-1.154458999633789
1654945866465233200,8.585233154296875,-1.8771216869354248,-1.351750373840332,-0.08923393487930298
1654945866485533200,8.605533203125,-2.5078718662261963,-0.9844245910644531,-0.12036186456680298
1654945866505873200,8.625873046875,-2.6658883094787598,-1.309901237487793,-1.352877140045166
1654945866526165000,8.6461650390625,-3.2709596157073975,-1.921274185180664,-2.3890645503997803
1654945866546492700,8.66649267578125,-4.273292064666748,-1.6003541946411133,-2.036998748779297
1654945866566870000,8.6868701171875,-4.4074859619140625,-1.5206050872802734,-0.8107936978340149
1654945866587126300,8.707126220703126,-3.741136074066162,-2.6953582763671875,0.6171488761901855
1654945866607491300,8.7274912109375,-2.050191640853882,-4.49932861328125,-1.0871320962905884
1654945866627783700,8.74778369140625,-1.2837867736816406,-5.15305233001709,-2.7021055221557617
1654945866648069600,8.768069580078125,1.05660080909729,-2.508845329284668,-0.6882951855659485
1654945866668446200,8.7884462890625,2.839684009552002,1.76409912109375,5.106769561767578
1654945866688764200,8.80876416015625,1.4680416584014893,0.28983211517333984,5.073098659515381
1654945866709323300,8.8293232421875,1.7663711309432983,-2.7431745529174805,2.013279914855957
1654945866729815000,8.84981494140625,3.4528262615203857,-3.6802406311035156,-0.32945168018341064
1654945866749642000,8.86964208984375,3.9947166442871094,-1.9082441329956055,-1.5163075923919678
1654945866770030600,8.890030517578126,4.297707557678223,0.5707645416259766,-1.1067900657653809
1654945866790452200,8.9104521484375,4.31424617767334,1.0635347366333008,-0.6506182551383972
1654945866810596000,8.93059619140625,3.331923484802246,0.20810794830322266,-0.6128036975860596
1654945866830950000,8.950949951171875,1.9891093969345093,0.17398834228515625,-0.71598219871521
1654945866851268000,8.97126806640625,2.325104236602783,1.2280054092407227,-0.672088623046875
1654945866871523600,8.991523681640626,3.5141091346740723,2.719038963317871,-0.5724695920944214
1654945866891851500,9.0118515625,4.189168930053711,2.8304829597473145,-1.4145941734313965
1654945866912151300,9.0321513671875,3.5941364765167236,1.6556949615478516,-2.6401069164276123
1654945866932439600,9.052439453125,3.552885055541992,0.3126955032348633,-3.1533801555633545
1654945866952766700,9.0727666015625,2.93125581741333,0.5768718719482422,-1.7172186374664307
1654945866973040600,9.09304052734375,2.123708724975586,1.970323085784912,0.0689002275466919
1654945866993384400,9.113384521484376,1.882053017616272,2.470860004425049,0.7179256677627563
1654945867013683700,9.13368359375,2.0135462284088135,2.2239866256713867,0.5997023582458496
1654945867034013200,9.15401318359375,2.5447278022766113,2.041297435760498,0.13744890689849854
1654945867054290200,9.174290283203124,2.389331102371216,1.8924980163574219,-0.22076869010925293
1654945867074609200,9.194609130859375,1.3638513088226318,1.527186393737793,-0.32982850074768066
1654945867094953700,9.21495361328125,-0.27669835090637207,0.8459663391113281,-0.1216115951538086
1654945867115332900,9.235332763671876,-2.5854439735412598,0.3233175277709961,0.9035338163375854
1654945867135564500,9.255564453125,-4.535369873046875,-0.22297191619873047,1.6472628116607666
1654945867155870000,9.275869873046876,-3.4887990951538086,-0.5468864440917969,2.122189998626709
1654945867176187000,9.296186767578124,-1.792961597442627,-0.5618209838867188,2.3600921630859375
1654945867196625400,9.31662548828125,-1.895153522491455,-0.3403053283691406,1.1311219930648804
1654945867216832500,9.33683251953125,-3.334512233734131,-0.21128177642822266,0.8520317077636719
1654945867237163500,9.35716357421875,-2.5340914726257324,0.8374700546264648,2.254967212677002
1654945867257506800,9.3775068359375,0.2509651184082031,0.3246011734008789,2.5274341106414795
1654945867277794800,9.397794921875,1.6966612339019775,-2.651362419128418,2.285409450531006
1654945867298900200,9.418900146484376,2.6522650718688965,-5.047345161437988,0.77976393699646
1654945867318421200,9.438421142578125,2.087358236312866,-5.807015419006348,-0.6839045286178589
1654945867338711600,9.458711669921875,0.9661563634872437,-2.851541519165039,-1.241895318031311
1654945867359031300,9.47903125,2.6976497173309326,4.112026691436768,0.341352641582489
1654945867379329800,9.499329833984374,6.557318210601807,8.660431861877441,1.5238771438598633
1654945867399840000,9.519840087890625,5.403905868530273,6.704433917999268,0.5262594819068909
1654945867420266800,9.540266845703124,-0.9060305953025818,1.2965822219848633,-3.305391788482666
1654945867440365600,9.560365478515624,-0.9894146919250488,-1.6958322525024414,-5.955212593078613
1654945867460563000,9.58056298828125,1.2900947332382202,-1.6457366943359375,-3.3377575874328613
1654945867480906800,9.60090673828125,1.4039127826690674,-0.3427467346191406,-0.3205109238624573
1654945867501214200,9.621214111328126,1.0608110427856445,-0.8530817031860352,1.6904983520507812
1654945867521771300,9.641771240234375,0.950176477432251,-0.6068010330200195,0.4872934818267822
1654945867541914400,9.661914306640625,0.058028459548950195,0.250274658203125,-2.1413252353668213
1654945867562163700,9.682163818359374,0.3557707667350769,-0.006911277770996094,-2.111734628677368
1654945867582478600,9.702478515625,1.2985329627990723,0.20499134063720703,-0.8691644072532654
1654945867602883600,9.722883544921874,1.5419063568115234,0.58538818359375,-0.09496867656707764
1654945867623179800,9.7431796875,1.431267261505127,0.5263338088989258,0.42560577392578125
1654945867643513300,9.763513427734376,1.4367930889129639,0.9522771835327148,0.7914274334907532
1654945867663813000,9.783813232421876,1.4565467834472656,0.9920282363891602,1.270443320274353
1654945867684108300,9.8041083984375,1.298020362854004,0.6497039794921875,1.3534483909606934
1654945867704381000,9.824380859375,0.6327129602432251,0.3503246307373047,0.9524937868118286
1654945867724690200,9.844690185546876,-0.23932337760925293,0.38921260833740234,0.35488563776016235
1654945867745050400,9.86505029296875,-0.7469068765640259,0.6160802841186523,-0.09726405143737793
1654945867765373700,9.885373779296875,-1.154616355895996,0.9800291061401367,-0.6691881418228149
1654945867785731800,9.90573193359375,-1.5851083993911743,0.9872865676879883,-1.4683034420013428
1654945867806069200,9.9260693359375,-1.303253412246704,0.16996479034423828,-2.29300856590271
1654945867826370300,9.946370361328125,-1.09636652469635,-0.8626623153686523,-2.695239543914795
1654945867846603300,9.966603271484376,-1.7099697589874268,-1.2121477127075195,-2.0641422271728516
1654945867866840800,9.9868408203125,-2.1932554244995117,-1.2373428344726562,-0.7429996728897095
1654945867887196700,10.00719677734375,-2.250819444656372,-1.1358098983764648,-0.2569867968559265
1654945867907528400,10.027528564453124,-2.1273446083068848,-1.397120475769043,-0.97829669713974
1654945867927772400,10.0477724609375,-2.7174806594848633,-1.9206428527832031,-1.9932612180709839
1654945867948117200,10.0681171875,-3.7395877838134766,-2.0712833404541016,-2.19832706451416
1654945867968571600,10.088571533203124,-4.211744785308838,-1.6640701293945312,-1.504526972770691
1654945867988787000,10.108786865234375,-3.587286949157715,-2.5662622451782227,-1.2880022525787354
1654945868009464800,10.12946484375,-2.6168155670166016,-4.605852127075195,-2.295758008956909
1654945868029526000,10.149526123046876,-2.13818359375,-4.592828750610352,-2.562771797180176
1654945868049709600,10.16970947265625,-1.1016957759857178,-2.1884727478027344,-1.7788443565368652
1654945868070034200,10.1900341796875,2.7613272666931152,1.7621617317199707,1.5378186702728271
1654945868090344400,10.210344482421876,2.8132007122039795,1.919450283050537,4.318081855773926
1654945868110637800,10.230637939453125,0.6486057043075562,-2.87105655670166,1.3993358612060547
1654945868130951700,10.25095166015625,2.17974591255188,-4.446681022644043,-1.5248146057128906
1654945868151393300,10.271393310546875,5.409416198730469,-2.768673896789551,-3.1629278659820557
1654945868171601400,10.291601318359374,5.770476818084717,0.0634298324584961,-2.9293742179870605
1654945868191885600,10.311885498046875,4.469240665435791,1.4640679359436035,-1.680560827255249
1654945868212183800,10.332183837890625,3.490154266357422,0.5984859466552734,-0.7724720239639282
1654945868232503300,10.35250341796875,2.585770606994629,-0.22020816802978516,-0.4972193241119385
1654945868252832300,10.372832275390625,0.8878545761108398,0.20196056365966797,-0.9311505556106567
1654945868273153500,10.393153564453126,2.2076122760772705,1.0973000526428223,-1.4334652423858643
1654945868293460700,10.413460693359376,2.9693472385406494,1.410691738128662,-1.5600059032440186
1654945868313798700,10.433798583984375,3.6792049407958984,0.4971780776977539,-2.261558771133423
1654945868334125800,10.454125732421875,3.7018074989318848,-0.16382503509521484,-2.727330207824707
1654945868354427100,10.47442724609375,2.44415020942688,0.5910978317260742,-2.3652303218841553
1654945868374688000,10.49468798828125,1.7056480646133423,1.1008009910583496,-1.3508168458938599
1654945868395058000,10.515057861328126,1.6961015462875366,0.7501430511474609,-0.3937065601348877
1654945868415378700,10.535378662109375,2.0681960582733154,0.5305376052856445,-0.08139383792877197
1654945868435637800,10.5556376953125,2.3943355083465576,0.5963258743286133,-0.1604299545288086
1654945868455953400,10.575953369140626,2.9140806198120117,0.7794246673583984,0.0180511474609375
1654945868476245000,10.596244873046874,3.5721216201782227,1.2608084678649902,0.9142457246780396
1654945868496562700,10.616562744140625,3.461015462875366,1.59423828125,2.067387580871582
1654945868516916500,10.63691650390625,2.498932123184204,1.943429946899414,2.6373133659362793
1654945868537210600,10.657210693359374,0.7784783840179443,2.474907398223877,1.7912638187408447
1654945868557534000,10.677533935546874,-1.3632166385650635,1.3561429977416992,0.7172236442565918
1654945868577827600,10.69782763671875,-3.0049140453338623,-0.4883756637573242,0.42247140407562256
1654945868598121500,10.71812158203125,-3.3525655269622803,-1.301239013671875,-0.45373666286468506
1654945868618721500,10.738721435546875,-3.6185243129730225,-1.3257102966308594,-0.44595885276794434
1654945868638931500,10.758931396484375,-2.8510406017303467,-0.9617805480957031,-0.19039559364318848
1654945868659122700,10.779122802734374,-1.432305097579956,0.2497100830078125,-0.14520752429962158
1654945868679432000,10.799431884765625,-0.5345265865325928,2.0137996673583984,0.1031409502029419
1654945868699889000,10.819888916015625,0.7412335872650146,1.7785773277282715,1.3570460081100464
1654945868720112600,10.840112548828126,1.8309509754180908,-1.551997184753418,2.971794366836548
1654945868740485400,10.8604853515625,2.4912781715393066,-4.19674015045166,3.450674057006836
1654945868760800500,10.880800537109375,2.8495492935180664,-4.52702522277832,2.418449640274048
1654945868780980200,10.900980224609375,1.3757216930389404,-2.836430549621582,2.3428521156311035
1654945868801394200,10.921394287109376,1.3650236129760742,2.176100254058838,0.7127358317375183
1654945868821629700,10.941629638671875,5.795650959014893,6.237909317016602,-0.43121179938316345
1654945868841935600,10.961935546875,6.700801849365234,4.75778341293335,0.9135193228721619
1654945868863208700,10.983208740234375,0.02657228708267212,-0.9069805145263672,-2.5029406547546387
1654945868882637300,11.00263720703125,0.5709224939346313,-3.4632253646850586,-8.533376693725586
1654945868902891000,11.02289111328125,1.4363350868225098,-2.9291772842407227,-8.288512229919434
1654945868923153400,11.0431533203125,1.0510993003845215,-0.3369894027709961,-2.09065318107605
1654945868943490800,11.06349072265625,0.7278003692626953,1.118844985961914,2.609138250350952
1654945868963804400,11.083804443359375,-0.17367473244667053,0.8812541961669922,2.872856855392456
1654945868984309500,11.1043095703125,-0.36453938484191895,0.07536888122558594,0.9607571959495544
1654945869004681700,11.124681640625,-0.014279618859291077,0.11742591857910156,-0.3798049986362457
1654945869024788500,11.14478857421875,0.973631739616394,0.6465778350830078,-0.26671716570854187
1654945869045117400,11.165117431640626,1.7484192848205566,0.9809303283691406,-0.314770370721817
1654945869065438700,11.185438720703125,1.699364423751831,0.7981290817260742,-0.8911683559417725
1654945869085842200,11.20584228515625,1.6947810649871826,0.4317293167114258,-1.4618144035339355
1654945869106188000,11.22618798828125,2.0876383781433105,0.2507352828979492,-1.618354320526123
1654945869126351600,11.2463515625,2.2294411659240723,0.36293601989746094,-1.2471542358398438
1654945869146668300,11.266668212890625,1.5224645137786865,0.5115585327148438,-0.7164207696914673
1654945869166995000,11.286994873046876,0.05426037311553955,0.4749488830566406,-0.03488898277282715
1654945869187345700,11.307345703125,-1.014788269996643,0.5928544998168945,0.5012253522872925
1654945869207494700,11.32749462890625,-0.9227786064147949,0.5689888000488281,0.5244105458259583
1654945869227825400,11.347825439453125,-0.7323684692382812,0.16252422332763672,-0.22217512130737305
1654945869248147700,11.368147705078124,-1.0858043432235718,-0.13891315460205078,-1.2197391986846924
1654945869268468000,11.388468017578125,-1.3678929805755615,-0.22768783569335938,-1.3385779857635498
1654945869288773400,11.4087734375,-1.4293391704559326,-0.4471759796142578,-1.1072595119476318
1654945869309149400,11.4291494140625,-1.4334502220153809,-0.7485828399658203,-0.883446991443634
1654945869329399600,11.449399658203125,-0.9946478605270386,-1.0548419952392578,-0.5273756980895996
1654945869349706500,11.46970654296875,-0.5962023735046387,-0.7292680740356445,0.20269453525543213
1654945869370004000,11.49000390625,-1.3958666324615479,-0.281951904296875,0.17237728834152222
1654945869390364200,11.5103642578125,-2.1760053634643555,-0.39241790771484375,-1.7500176429748535
1654945869410713000,11.530713134765625,-2.399696111679077,-1.6165266036987305,-3.9630117416381836
1654945869430944300,11.5509443359375,-2.379955291748047,-3.4733266830444336,-4.540193557739258
1654945869451277600,11.571277587890625,-1.9212124347686768,-4.216605186462402,-3.383706569671631
1654945869471574000,11.591573974609375,-1.9600054025650024,-3.5410470962524414,-1.4473512172698975
1654945869491878100,11.611878173828124,-2.316094398498535,-2.5510053634643555,0.9387767314910889
1654945869512215300,11.63221533203125,-1.245783805847168,-1.1833610534667969,1.281106948852539
1654945869532539600,11.65253955078125,0.25262999534606934,1.5282440185546875,3.448756694793701
1654945869552831700,11.672831787109375,1.1809240579605103,2.7896575927734375,4.662286758422852
1654945869573166300,11.693166259765626,1.2768994569778442,0.0882253646850586,1.7570346593856812
1654945869593477000,11.71347705078125,2.3087027072906494,-3.1261205673217773,-1.2867212295532227
1654945869613825300,11.7338251953125,3.635758876800537,-3.8418960571289062,-2.264202356338501
1654945869634103600,11.754103515625,5.921698570251465,-1.7851791381835938,-1.8492947816848755
1654945869654410500,11.774410400390625,5.051318645477295,0.2078533172607422,-1.1128778457641602
1654945869674768400,11.794768310546875,3.195932626724243,0.7056417465209961,-1.4762578010559082
1654945869695083300,11.815083251953125,2.746910810470581,0.3988151550292969,-2.3977413177490234
1654945869715537000,11.835536865234374,2.5248196125030518,0.6448612213134766,-2.170166015625
1654945869735716600,11.855716552734375,2.343031644821167,1.1476988792419434,-1.2955459356307983
1654945869756028200,11.876028076171876,3.100456476211548,1.050466537475586,-1.1671102046966553
1654945869776287700,11.896287841796875,3.588531494140625,0.8341817855834961,-1.1906161308288574
1654945869796780800,11.91678076171875,3.0446388721466064,0.588160514831543,-1.2244786024093628
1654945869816943000,11.936943115234374,2.0901589393615723,-0.09041595458984375,-1.2606396675109863
1654945869837221000,11.95722119140625,1.016687273979187,-0.7873353958129883,-0.8612653017044067
1654945869857559000,11.97755908203125,0.6872725486755371,-1.1928691864013672,-0.6642197370529175
1654945869878107000,11.99810693359375,0.8847043514251709,-0.7779397964477539,-0.4787580966949463
1654945869898439200,12.018439208984375,1.3797343969345093,-0.1311788558959961,-0.12685799598693848
1654945869918585900,12.0385859375,1.918965220451355,0.017629623413085938,0.18230414390563965
1654945869938839300,12.05883935546875,2.5736801624298096,0.33040332794189453,0.45955872535705566
1654945869959213000,12.079213134765626,3.084084987640381,1.0150327682495117,0.7777369022369385
1654945869979558000,12.099557861328124,3.10560941696167,1.4412240982055664,1.1345778703689575
1654945869999858400,12.1198583984375,2.4880266189575195,1.469334602355957,1.562390685081482
1654945870020122000,12.1401220703125,1.431028127670288,1.3674521446228027,1.9237793684005737
1654945870040448000,12.160447998046875,0.5852956771850586,1.2739181518554688,1.3229957818984985
1654945870060769500,12.18076953125,-0.10304117202758789,1.4502148628234863,0.15091562271118164
1654945870081081600,12.20108154296875,-0.7962825298309326,0.9645576477050781,-0.7478654980659485
1654945870101412400,12.221412353515625,-1.313718557357788,0.07915401458740234,-0.7271232604980469
1654945870121612300,12.2416123046875,-0.9823832511901855,-0.44409942626953125,-0.7646561861038208
1654945870141976800,12.261976806640625,-1.1614389419555664,-0.7934474945068359,-0.9995476007461548
1654945870162260000,12.282260009765626,-1.453535556793213,-0.48570728302001953,-0.9243340492248535
1654945870182589700,12.302589599609375,-0.5807266235351562,0.09407997131347656,-0.4347313642501831
1654945870202867700,12.32286767578125,0.4231138229370117,0.5201005935668945,0.29939520359039307
1654945870223172400,12.34317236328125,0.8944543600082397,0.6325721740722656,0.8331247568130493
1654945870243488000,12.363488037109375,0.7152997255325317,0.3086395263671875,1.0759999752044678
1654945870263865900,12.383865966796876,1.0431479215621948,-0.22439098358154297,1.3910207748413086
1654945870284104700,12.404104736328126,2.157716751098633,-1.2079849243164062,2.198263645172119
1654945870304464000,12.4244638671875,0.1859194040298462,-2.8226165771484375,2.501603603363037
1654945870324745000,12.444744873046876,-1.7743784189224243,-3.1465349197387695,1.7757327556610107
1654945870345172700,12.4651728515625,0.5316435694694519,0.6327037811279297,0.9073288440704346
1654945870365415400,12.48541552734375,4.757114410400391,3.8420214653015137,0.028684020042419434
1654945870385685000,12.50568505859375,5.305754661560059,3.428304672241211,0.8299980163574219
1654945870405964300,12.52596435546875,1.8171656131744385,0.6803092956542969,-0.10811400413513184
1654945870426340400,12.54634033203125,0.3587944507598877,-1.4000921249389648,-2.49593448638916
1654945870446603300,12.566603271484375,1.092329502105713,-1.3333702087402344,-2.790234327316284
1654945870466984400,12.586984375,2.0028700828552246,-0.15092182159423828,-1.9004936218261719
1654945870487240400,12.607240478515624,2.5576183795928955,0.207244873046875,-1.1891052722930908
1654945870507650600,12.627650634765626,2.535250425338745,0.1535320281982422,-0.7907689809799194
1654945870527967500,12.647967529296874,1.525977611541748,-0.1972675323486328,-0.4542163908481598
1654945870548259300,12.66825927734375,0.4448763430118561,-0.17041969299316406,-0.4387103319168091
1654945870568557300,12.688557373046875,0.3616436719894409,-0.6491222381591797,-0.6848742365837097
1654945870588841000,12.708841064453125,0.09605047106742859,-0.2808980941772461,0.07800528407096863
1654945870609146000,12.72914599609375,0.32514238357543945,1.213226318359375,1.5038738250732422
1654945870629520400,12.749520263671876,0.7272248864173889,1.039210319519043,0.2563580572605133
1654945870649811500,12.7698115234375,0.6993777751922607,0.13289356231689453,-1.6415410041809082
1654945870670141200,12.79014111328125,1.045687198638916,-0.12425708770751953,-2.113729476928711
1654945870690464300,12.81046435546875,1.261808156967163,-0.09696102142333984,-2.3374359607696533
1654945870710692600,12.830692626953125,1.2292253971099854,0.016251564025878906,-2.272520065307617
1654945870730974000,12.850973876953125,1.4814778566360474,0.009350776672363281,-1.3166972398757935
1654945870751332400,12.871332275390625,1.4955307245254517,0.19410991668701172,0.29491734504699707
1654945870771690800,12.891690673828125,0.5906010866165161,0.37680816650390625,1.7547119855880737
1654945870791932200,12.91193212890625,-0.30797553062438965,0.3371896743774414,2.348550796508789
1654945870812228900,12.932228759765625,-0.38337576389312744,0.2818603515625,1.5667294263839722
1654945870832547300,12.95254736328125,-0.13357138633728027,-0.0680999755859375,-0.2665422856807709
1654945870852865000,12.972864990234376,0.19803142547607422,-0.28060436248779297,-1.5476393699645996
1654945870873216000,12.993216064453126,0.24669671058654785,-0.07976436614990234,-1.422654628753662
1654945870893563400,13.0135634765625,-0.14367222785949707,-0.025132179260253906,-0.712020993232727
1654945870913890600,13.033890625,-0.3590158224105835,-0.19010353088378906,-0.5539263486862183
1654945870934188500,13.0541884765625,-0.35430288314819336,-0.10332012176513672,-0.5709715485572815
1654945870954528500,13.074528564453125,-0.522655725479126,0.35146427154541016,-0.4022361636161804
1654945870974770000,13.09477001953125,-0.4925636053085327,0.6342983245849609,-0.381647527217865
1654945870995064300,13.115064208984375,-0.08022987842559814,0.4477386474609375,-0.9070426821708679
1654945871015374000,13.1353740234375,-0.022831320762634277,0.08773326873779297,-1.5118287801742554
1654945871035691500,13.15569140625,0.18422114849090576,-0.371917724609375,-1.668864369392395
1654945871056005000,13.176005126953125,0.5160369873046875,-0.2535581588745117,-1.357609748840332
1654945871076310000,13.19631005859375,0.43239760398864746,-0.07253074645996094,-0.8988797068595886
1654945871096642600,13.216642578125,-0.4022098779678345,-0.6679801940917969,-0.4619915783405304
1654945871116970800,13.236970703125,-1.616543173789978,-1.5399351119995117,-0.8018268346786499
1654945871137331700,13.257331787109376,-1.5412871837615967,-3.0596656799316406,-1.9769344329833984
1654945871157617000,13.277616943359375,-0.7236747741699219,-4.093095779418945,-2.877277374267578
1654945871178660000,13.29866015625,-0.809943675994873,-3.599822998046875,-2.269052267074585
1654945871198247200,13.3182470703125,-1.1070096492767334,-2.536792755126953,-0.3753545582294464
1654945871218578700,13.33857861328125,-1.1948796510696411,-0.5811595916748047,2.1820592880249023
1654945871238850000,13.35885009765625,-1.4474034309387207,0.7719821929931641,2.2288739681243896
1654945871259137300,13.37913720703125,-1.5123255252838135,0.6292476654052734,0.7759412527084351
1654945871279462400,13.39946240234375,-0.8807421326637268,0.44939327239990234,0.7208962440490723
1654945871299751400,13.41975146484375,0.01801002025604248,0.8267459869384766,0.9129635095596313
1654945871320111600,13.440111572265625,0.9392375946044922,1.1973495483398438,1.3944814205169678
1654945871340388900,13.460388916015624,1.0019091367721558,0.4977397918701172,1.5798901319503784
1654945871360697900,13.48069775390625,1.46138334274292,-1.2733449935913086,1.0615990161895752
1654945871381785600,13.50178564453125,2.3291311264038086,-1.88787841796875,1.0816245079040527
1654945871401314600,13.521314453125,3.2086901664733887,-1.7417020797729492,0.39717674255371094
1654945871421637000,13.54163720703125,4.023919582366943,-1.210653305053711,-0.9168990850448608
1654945871441936400,13.561936279296875,3.8347177505493164,-0.2123270034790039,-1.280630350112915
1654945871462257700,13.582257568359376,2.8647141456604004,0.4630317687988281,-1.8362467288970947
1654945871482572500,13.602572509765626,2.1248369216918945,0.5456371307373047,-2.6225452423095703
1654945871503669800,13.623669677734375,1.7455812692642212,0.9244356155395508,-3.0540716648101807
1654945871523288600,13.64328857421875,1.4061137437820435,1.1746912002563477,-2.3611786365509033
1654945871543519000,13.66351904296875,1.6324853897094727,0.9111404418945312,-1.0633819103240967
1654945871563797200,13.68379736328125,1.8743572235107422,0.08263778686523438,-0.6601865291595459
1654945871584155400,13.7041552734375,1.2515792846679688,-0.5449342727661133,-0.4438415765762329
1654945871604463600,13.724463623046875,0.9041441679000854,-0.6461210250854492,0.09042811393737793
1654945871624768300,13.744768310546876,1.3526899814605713,-0.6373224258422852,0.5202240943908691
1654945871645070000,13.765070068359375,1.2593092918395996,-0.48307228088378906,0.7959192991256714
1654945871665398800,13.785398681640626,1.0268495082855225,-0.36536312103271484,0.6760585308074951
1654945871685688800,13.805688720703126,1.213034749031067,-0.06345653533935547,0.507996678352356
1654945871706030600,13.826030517578126,1.627946376800537,0.6986799240112305,0.3088693618774414
1654945871726311200,13.846311279296875,1.5992991924285889,1.6225557327270508,0.2703251838684082
1654945871746636300,13.86663623046875,1.6250293254852295,1.7368035316467285,0.42309725284576416
1654945871766971600,13.8869716796875,1.788920521736145,1.7323384284973145,0.7558001279830933
1654945871787268400,13.907268310546876,1.906877040863037,2.0977110862731934,1.125588297843933
1654945871807601200,13.92760107421875,2.0893163681030273,2.058906078338623,0.7243040800094604
1654945871827910700,13.94791064453125,2.047774314880371,1.401899814605713,-0.24285602569580078
1654945871848217300,13.96821728515625,1.6974291801452637,0.9202589988708496,-0.33533990383148193
1654945871868542500,13.98854248046875,1.2422889471054077,0.5777683258056641,0.10010159015655518
1654945871888820000,14.008820068359375,0.7720053195953369,0.31260013580322266,0.2175501585006714
1654945871909169700,14.029169677734375,0.08753228187561035,0.22922611236572266,0.24866735935211182
1654945871929464000,14.049464111328126,-0.37277793884277344,0.32170867919921875,0.2775670289993286
1654945871949760500,14.069760498046875,-0.5732672214508057,0.4458293914794922,0.3568028211593628
1654945871970077400,14.090077392578126,-0.6634457111358643,0.6796016693115234,0.5221129059791565
1654945871990443300,14.110443359375,-1.1011970043182373,1.1042633056640625,0.9286444187164307
1654945872010808600,14.13080859375,-1.5695927143096924,1.025446891784668,1.162780523300171
1654945872031024000,14.151024169921875,-1.5275447368621826,0.46463871002197266,0.9733631014823914
1654945872051327000,14.171326904296874,-1.1181946992874146,0.6277742385864258,0.7443230748176575
1654945872071647700,14.191647705078125,-0.4608426094055176,-0.08338737487792969,1.2593166828155518
1654945872091955700,14.211955810546876,-0.7694777250289917,-3.577577590942383,2.3735179901123047
1654945872112301300,14.23230126953125,-1.3858482837677002,-6.368860244750977,1.456261157989502
1654945872132606500,14.2526064453125,-1.092132806777954,-5.417527198791504,-0.47947949171066284
1654945872152898800,14.27289892578125,0.7836061120033264,-1.5782175064086914,-0.06820517778396606
1654945872173214000,14.2932138671875,3.8230438232421875,2.5585036277770996,1.487262487411499
1654945872193542400,14.31354248046875,4.576022624969482,3.8724522590637207,3.3338663578033447
1654945872213859800,14.33385986328125,2.0066237449645996,2.5707783699035645,3.2652134895324707
1654945872234968300,14.35496826171875,1.0236518383026123,1.144953727722168,1.2460540533065796
1654945872255459000,14.375458984375,2.8080265522003174,0.191497802734375,-0.2319493293762207
1654945872275770400,14.395770263671874,5.109007835388184,0.18126201629638672,-0.8817222118377686
1654945872295102000,14.41510205078125,4.274039268493652,0.043343544006347656,-1.8520514965057373
1654945872316807200,14.43680712890625,1.9155164957046509,-0.3602323532104492,-2.4202849864959717
1654945872337116000,14.457115966796875,-0.39482131600379944,-0.7103347778320312,-1.3733464479446411
1654945872357374200,14.477374267578124,-0.9406135082244873,-0.45699024200439453,0.6607956886291504
1654945872379263000,14.499262939453125,-0.00935584306716919,-0.7844038009643555,1.485181450843811
1654945872417980400,14.53798046875,-0.40060707926750183,-0.3610572814941406,-0.8645060062408447
1654945872437330000,14.557329833984374,1.1333823204040527,0.16628456115722656,-0.5910359621047974
1654945872457684200,14.577684326171875,1.768908977508545,0.3241539001464844,-0.1370718777179718
1654945872481268200,14.601268310546875,1.358076810836792,-0.10364723205566406,-0.14408427476882935
1654945872519377000,14.639376953125,1.0906492471694946,0.3856945037841797,1.5043315887451172
1654945872538902500,14.658902587890625,1.4944270849227905,0.5147523880004883,1.3048304319381714
1654945872559251200,14.679251220703126,1.3413443565368652,0.3696908950805664,0.4088056683540344
1654945872579585000,14.6995849609375,1.0788689851760864,0.3890104293823242,-0.26838967204093933
1654945872599834400,14.71983447265625,0.8390184640884399,0.3036155700683594,-0.5517368316650391
1654945872620161800,14.740161865234375,0.2335970401763916,0.15097808837890625,-0.5178978443145752
1654945872640475100,14.76047509765625,-0.11370527744293213,-0.2947673797607422,-0.6169588565826416
1654945872660803000,14.780802978515625,0.0057299137115478516,-0.6786069869995117,-0.997053325176239
1654945872681095400,14.801095458984374,0.1397991180419922,-0.27394866943359375,-1.1426948308944702
1654945872701414100,14.8214140625,0.4207237958908081,0.39652156829833984,-0.7007741332054138
1654945872721726500,14.8417265625,0.8542728424072266,0.38516998291015625,-0.1636478304862976
1654945872742151000,14.86215087890625,0.6895753145217896,0.3151063919067383,0.08476129174232483
1654945872762344200,14.88234423828125,0.3981359004974365,0.3939170837402344,0.27407902479171753
1654945872782670000,14.902670166015625,-0.0549616813659668,0.16103839874267578,0.24208295345306396
1654945872802963700,14.922963623046876,-0.4107625484466553,0.12644290924072266,-0.30033349990844727
1654945872823320600,14.943320556640625,-0.5279827117919922,0.0766897201538086,-0.9898744821548462
1654945872843823900,14.963823974609374,-0.6053236722946167,-0.36460113525390625,-1.6047745943069458
1654945872863918800,14.9839189453125,-0.993353009223938,-0.4068336486816406,-1.5945461988449097
1654945872884266000,15.004265869140625,-1.4996001720428467,-0.11098003387451172,-1.0198018550872803
1654945872904547300,15.02454736328125,-1.5456770658493042,-0.35281848907470703,-0.8075844645500183
1654945872925001700,15.045001708984374,-1.6791938543319702,-1.272294044494629,-1.685028076171875
1654945872945165000,15.0651650390625,-1.603095531463623,-1.7944812774658203,-2.317505359649658
1654945872965546800,15.085546630859374,-0.636214017868042,-1.2765750885009766,-1.6051896810531616
1654945872985864700,15.10586474609375,0.8520467281341553,-1.0394229888916016,-0.19164875149726868
1654945873006099700,15.126099609375,0.8641229867935181,-0.8174629211425781,0.9536949396133423
1654945873026510600,15.146510498046876,0.23355317115783691,-0.2688179016113281,1.56337571144104
1654945873046752300,15.166752197265625,0.08005690574645996,0.17249584197998047,1.8360079526901245
1654945873067086800,15.1870869140625,0.09122824668884277,0.3526420593261719,1.9474005699157715
1654945873087407000,15.207406982421874,-0.24077141284942627,0.423126220703125,1.9619140625
1654945873107685000,15.22768505859375,-0.40731871128082275,0.6736545562744141,1.8087056875228882
1654945873127950000,15.2479501953125,-0.34742093086242676,0.6311912536621094,1.6270405054092407
1654945873148292000,15.2682919921875,-0.24989581108093262,0.5298843383789062,1.590235710144043
1654945873168566500,15.28856640625,-0.019368618726730347,0.9129371643066406,1.7541946172714233
1654945873189440500,15.3094404296875,0.8272689580917358,0.8524799346923828,1.9415669441223145
1654945873209231600,15.329231689453126,1.8207511901855469,0.07185745239257812,1.9624440670013428
1654945873229513200,15.34951318359375,2.1176629066467285,-1.0048580169677734,1.1217091083526611
1654945873253525500,15.373525390625,1.6197383403778076,-1.6826848983764648,-0.7906355857849121
1654945873290519000,15.41051904296875,3.257805347442627,-0.6372442245483398,-0.26053357124328613
1654945873310791400,15.43079150390625,2.8482770919799805,-0.37705421447753906,-2.4852242469787598
1654945873331057700,15.4510576171875,2.1582369804382324,-0.9971475601196289,-3.7277297973632812
1654945873351392000,15.47139208984375,2.6750268936157227,0.45293712615966797,-1.6511377096176147
1654945873371823900,15.491823974609375,1.4353697299957275,1.3817720413208008,0.5765962600708008
1654945873392138800,15.512138671875,0.1116642951965332,1.5499510765075684,1.3006868362426758
1654945873412382500,15.532382568359376,0.292852520942688,1.7457785606384277,1.1275875568389893
1654945873432698600,15.55269873046875,0.9112052321434021,1.6774969100952148,0.6852703094482422
1654945873452972300,15.57297216796875,0.7686583995819092,1.0331988334655762,0.5147864818572998
1654945873473318100,15.593318115234375,0.3519890308380127,-0.15219974517822266,0.48920297622680664
1654945873493657000,15.613656982421874,0.1796051263809204,-0.6152191162109375,-0.07338857650756836
1654945873513924900,15.6339248046875,-0.1443614959716797,-0.42400455474853516,-0.8994426727294922
1654945873534241800,15.65424169921875,-0.3535151481628418,-0.6619100570678711,-1.2876880168914795
1654945873557452000,15.6774521484375,-0.41024017333984375,-0.8029403686523438,-1.057468295097351
1654945873595174000,15.715173828125,-0.3908485174179077,0.07640266418457031,-0.038623809814453125
1654945873615476000,15.73547607421875,0.042202115058898926,0.726994514465332,0.22403717041015625
1654945873635789300,15.755789306640626,0.19746696949005127,1.064162254333496,0.20685410499572754
1654945873656101600,15.7761015625,-0.03451955318450928,1.0947842597961426,-0.12790346145629883
1654945873676402200,15.796402099609375,-0.294649600982666,0.8543825149536133,-0.29212701320648193
1654945873697670000,15.817669921875,-0.5332933664321899,0.5635890960693359,-0.31314313411712646
1654945873717104000,15.837104248046876,-0.5889323949813843,0.31573963165283203,-0.19500398635864258
1654945873740622000,15.8606220703125,-0.44986963272094727,0.34232044219970703,-0.21094441413879395
1654945873777970000,15.897969970703125,-0.6603367328643799,0.4450559616088867,-1.0581432580947876
1654945873798323200,15.9183232421875,-0.6321709156036377,0.6370420455932617,-0.33883142471313477
1654945873818655500,15.938655517578125,-0.4631197452545166,0.6939783096313477,0.3670034408569336
1654945873838953700,15.95895361328125,-0.5145204067230225,0.6444272994995117,0.7082300186157227
1654945873859282400,15.979282470703126,-0.21076524257659912,0.7014684677124023,1.0611863136291504
1654945873879548700,15.999548583984375,0.15633952617645264,0.6968650817871094,1.1900261640548706
1654945873899908600,16.01990869140625,0.2082144021987915,0.043082237243652344,0.6564352512359619
1654945873920259800,16.040259765625,-0.3417477011680603,-0.8679170608520508,0.4559199810028076
1654945873940543700,16.060543701171873,-0.8860213756561279,-1.3576536178588867,0.06778335571289062
1654945873960824800,16.080824951171873,-0.7568604946136475,-1.3820323944091797,-0.5073115825653076
1654945873981142300,16.101142333984374,-0.10426586866378784,-0.7380561828613281,-0.6250395774841309
1654945874001561900,16.121561767578125,0.44966834783554077,0.4792318344116211,-0.4701371192932129
1654945874021765000,16.14176513671875,1.4775210618972778,1.2565255165100098,-0.14999330043792725
1654945874042064000,16.16206396484375,2.360278844833374,1.1221418380737305,0.02121448516845703
1654945874062389000,16.182388916015626,2.0266380310058594,0.2660493850708008,-0.3214982748031616
1654945874082778600,16.202778564453126,1.5163295269012451,-0.6417808532714844,-1.1841299533843994
1654945874103136000,16.223135986328124,0.7973671555519104,-0.5893173217773438,-1.3047736883163452
1654945874123378700,16.243378662109375,0.5020021200180054,0.24655437469482422,0.02557218074798584
1654945874143694000,16.263694091796875,1.301129937171936,0.8729381561279297,1.1644349098205566
1654945874164015000,16.28401513671875,2.3171684741973877,0.7290372848510742,0.7598602175712585
1654945874184452600,16.30445263671875,1.1942312717437744,0.14422130584716797,-0.3751193881034851
1654945874204577500,16.32457763671875,-0.08607834577560425,-0.05769634246826172,-1.2056019306182861
1654945874224876500,16.34487646484375,0.3972073793411255,-0.29296875,-1.726053237915039
1654945874245270800,16.365270751953126,0.8205664157867432,-0.6918354034423828,-1.9975101947784424
1654945874265493500,16.385493408203125,-0.38176488876342773,-1.050612449645996,-1.4471834897994995
1654945874286024400,16.4060244140625,-2.4391286373138428,-1.4285573959350586,-0.4649736285209656
1654945874306126000,16.4261259765625,-2.2201099395751953,-1.6498594284057617,-0.3827362358570099
1654945874326449200,16.44644921875,-1.255362868309021,-1.1980695724487305,-0.6188666820526123
1654945874346818600,16.466818603515627,-0.5151185393333435,-0.3285102844238281,-0.054848313331604004
1654945874367224000,16.48722412109375,0.2834181785583496,0.43550872802734375,0.4094011187553406
1654945874387382000,16.507382080078123,1.0695778131484985,0.8284673690795898,0.4440077543258667
1654945874407789800,16.527789794921876,1.6376324892044067,0.8803329467773438,0.1650075614452362
1654945874428057900,16.548057861328125,1.6061372756958008,0.814579963684082,-0.0627213716506958
1654945874448299500,16.568299560546876,1.4253722429275513,0.484161376953125,-0.295566201210022
1654945874468742700,16.58874267578125,1.0412696599960327,0.25478076934814453,-0.5134391188621521
1654945874488937700,16.608937744140626,0.4579993486404419,0.1695232391357422,-0.49186545610427856
1654945874509534200,16.6295341796875,-0.06160855293273926,-0.08486366271972656,-0.34867063164711
1654945874529532200,16.6495322265625,-0.49978888034820557,-0.8211889266967773,-0.24707435071468353
1654945874549859600,16.669859619140624,-0.703538715839386,-1.5280418395996094,-0.11661902070045471
1654945874570134300,16.69013427734375,-0.33640003204345703,-0.7715988159179688,0.3921034336090088
1654945874593793300,16.713793212890625,0.42418015003204346,0.13619422912597656,0.29462921619415283
1654945874631157500,16.751157470703124,0.5654124021530151,0.6869335174560547,-1.3452225923538208
1654945874651450600,16.77145068359375,0.6196020841598511,0.5406494140625,-1.028315544128418
1654945874671754200,16.791754150390624,0.5478266477584839,0.17129230499267578,-0.23373165726661682
1654945874692082000,16.81208203125,0.3927866220474243,0.12408065795898438,0.38867005705833435
1654945874712355800,16.83235595703125,0.37306511402130127,0.16684341430664062,0.6022604703903198
1654945874732693000,16.85269287109375,0.44260501861572266,0.1350851058959961,0.47164011001586914
1654945874753040100,16.8730400390625,0.4532421827316284,0.07219219207763672,0.15864068269729614
1654945874773313800,16.893313720703127,0.33763813972473145,-0.09052848815917969,-0.11679211258888245
1654945874793634300,16.91363427734375,0.14316976070404053,-0.34658145904541016,-0.41355445981025696
1654945874813988000,16.933988037109376,-0.13053381443023682,-0.5082616806030273,-0.6547507047653198
1654945874834242800,16.954242919921874,-0.22108900547027588,-0.516444206237793,-0.7389041781425476
1654945874854548700,16.974548828125,-0.049544692039489746,-0.29674816131591797,-0.9649913311004639
1654945874874980600,16.994980712890627,0.17787373065948486,-0.08478069305419922,-1.1844602823257446
1654945874896166700,17.016166748046874,0.30331528186798096,-0.0074596405029296875,-0.9678394794464111
1654945874916530200,17.0365302734375,0.3107187747955322,0.13789653778076172,-0.5349557995796204
1654945874936782000,17.056781982421874,0.36557650566101074,0.153167724609375,-0.23601184785366058
1654945874956132900,17.0761328125,0.3855013847351074,0.08941173553466797,-0.18709704279899597
1654945874977400000,17.097400146484375,0.4495276212692261,0.032958030700683594,-0.19868707656860352
1654945874997674000,17.117674072265626,0.39271748065948486,-0.07776260375976562,-0.15389825403690338
1654945875018019800,17.138019775390624,0.3362478017807007,-0.04727935791015625,-0.15903298556804657
1654945875038333200,17.158333251953124,0.2584935426712036,0.01637554168701172,-0.2503979206085205
1654945875060993300,17.1809931640625,0.15350866317749023,-0.06307411193847656,-0.30023515224456787
1654945875099052000,17.219052001953123,0.07570075988769531,0.048401832580566406,-0.1544683575630188
1654945875118637800,17.238637939453124,0.12102103233337402,-0.06906700134277344,-0.1540963351726532
1654945875138973700,17.2589736328125,0.10545027256011963,-0.15247249603271484,-0.31671983003616333
1654945875159296000,17.2792958984375,0.09568238258361816,-0.1143636703491211,-0.469251811504364
1654945875179569200,17.299569091796876,0.2131490707397461,-0.0632162094116211,-0.4031592011451721
1654945875199905000,17.319905029296876,0.3717299699783325,-0.008937835693359375,-0.12677301466464996
1654945875220166100,17.340166259765624,0.5392022132873535,0.13753032684326172,0.038006365299224854
1654945875240523800,17.360523681640625,0.6561789512634277,0.30521297454833984,0.007711827754974365
1654945875260853200,17.380853271484376,0.576941728591919,0.19066619873046875,-0.13292115926742554
1654945875281145900,17.401145751953123,0.300382137298584,-0.04534626007080078,-0.2253376692533493
1654945875301457000,17.421456787109374,-0.07698798179626465,-0.15050983428955078,-0.3624410331249237
1654945875321794600,17.441794677734375,-0.3512735366821289,-0.18667221069335938,-0.5845524072647095
1654945875342103600,17.462103515625,-0.4413442611694336,-0.18134021759033203,-0.618028998374939
1654945875362410500,17.482410400390624,-0.4489990472793579,-0.2004690170288086,-0.49295610189437866
1654945875382785000,17.502784912109377,-0.27157580852508545,-0.17174816131591797,-0.39161354303359985
1654945875403080700,17.523080810546876,0.016002893447875977,-0.09533119201660156,-0.2068231701850891
1654945875423428600,17.5434287109375,0.19951367378234863,0.0105438232421875,-0.09300702065229416
1654945875443833000,17.5638330078125,0.2893836498260498,0.13333702087402344,-0.06087376922369003
1654945875463912700,17.58391259765625,0.33954405784606934,0.11962223052978516,0.1240481436252594
1654945875484220200,17.60422021484375,0.2273573875427246,0.057537078857421875,0.36540257930755615
1654945875504615700,17.62461572265625,0.1421191692352295,-0.0024976730346679688,0.41175681352615356
1654945875524878000,17.644878173828126,0.16819286346435547,-0.00042057037353515625,0.2588600218296051
1654945875545296600,17.665296630859373,0.17458057403564453,-0.0054035186767578125,-0.038374707102775574
1654945875565537300,17.685537353515624,0.1073760986328125,-0.12581348419189453,-0.3289485573768616
1654945875585833500,17.70583349609375,0.012103557586669922,-0.118988037109375,-0.4071536958217621
1654945875606125800,17.726125732421874,-0.02378058433532715,-0.026561737060546875,-0.3288523852825165
1654945875626609000,17.74660888671875,-0.028051376342773438,0.0072727203369140625,-0.3290364742279053
1654945875646849000,17.76684912109375,-0.02402663230895996,-0.015357017517089844,-0.284451961517334
1654945875667083500,17.78708349609375,0.027925729751586914,-0.048450469970703125,-0.1603580117225647
1654945875687376000,17.8073759765625,0.10704374313354492,-0.1033639907836914,-0.12705875933170319
1654945875707716400,17.82771630859375,0.15831446647644043,-0.0128173828125,-0.07119309157133102
1654945875727966200,17.84796630859375,0.18564939498901367,0.11607646942138672,0.06816708296537399
1654945875748369400,17.868369384765625,0.2006216049194336,0.13132953643798828,0.23073744773864746
1654945875768697900,17.88869775390625,0.20844697952270508,0.05297565460205078,0.2467295527458191
1654945875789002200,17.909002197265625,0.18696188926696777,0.007053375244140625,0.07526625692844391
1654945875809283300,17.929283447265625,0.1052088737487793,0.008829116821289062,-0.205656036734581
1654945875829738200,17.94973828125,-0.04713630676269531,-0.06335067749023438,-0.33073312044143677
1654945875849861600,17.969861572265625,-0.12559139728546143,-0.08180618286132812,-0.18674121797084808
1654945875873462500,17.993462646484375,-0.16885697841644287,-0.04583263397216797,0.02446514368057251
1654945875910813200,18.030813232421874,-0.14089787006378174,-0.15809059143066406,-0.048493798822164536
1654945875931117000,18.051116943359375,-0.021707534790039062,-0.11064910888671875,0.02384832128882408
1654945875951449000,18.071448974609375,0.07020163536071777,0.004618644714355469,-0.016234317794442177
1654945875971754000,18.09175390625,0.1808621883392334,0.08563899993896484,-0.1696721613407135
1654945875992125200,18.112125244140625,0.251025915145874,0.13571643829345703,-0.2033603936433792
1654945876012408300,18.132408203125,0.2875704765319824,0.13472843170166016,-0.1895216405391693
1654945876032740000,18.152739990234377,0.2456352710723877,0.06361103057861328,-0.22070926427841187
1654945876053047000,18.173047119140627,0.24282455444335938,-0.0031805038452148438,-0.2834424674510956
1654945876073313500,18.1933134765625,0.15917110443115234,0.07070159912109375,-0.3452552855014801
1654945876093661700,18.21366162109375,-0.017775297164916992,0.10018062591552734,-0.310178279876709
1654945876113964500,18.233964599609376,-0.12279129028320312,0.03399658203125,-0.28787222504615784
1654945876134292500,18.25429248046875,-0.10877847671508789,-0.029526710510253906,-0.14616595208644867
1654945876154584600,18.27458447265625,-0.024394512176513672,-0.11559009552001953,-0.09018819034099579
1654945876174896000,18.294896240234376,0.0926826000213623,-0.23696517944335938,-0.07321088016033173
1654945876195248400,18.315248291015624,0.18859195709228516,-0.12658214569091797,0.08350564539432526
1654945876215762000,18.335761962890626,0.3074936866760254,0.07702922821044922,0.24501512944698334
1654945876236589300,18.35658935546875,0.3895890712738037,0.10190486907958984,0.3578735291957855
1654945876257109200,18.377109130859374,0.23062610626220703,0.1370706558227539,0.2391127645969391
1654945876276469500,18.396469482421875,0.26423168182373047,0.1334390640258789,0.050264984369277954
1654945876296789200,18.416789306640624,0.29789137840270996,0.14306640625,0.15375415980815887
1654945876317081300,18.437081298828126,0.2523188591003418,0.150970458984375,0.3189904987812042
1654945876337430500,18.457430419921874,0.3439967632293701,0.27030086517333984,0.20301347970962524
1654945876361485800,18.48148583984375,0.45554447174072266,0.10198593139648438,0.11455743759870529
1654945876381566000,18.50156591796875,0.09640359878540039,-0.05026531219482422,0.1479925513267517
1654945876401869600,18.52186962890625,-0.17882311344146729,-0.06489276885986328,0.2791479825973511
1654945876438948400,18.5589482421875,-0.3726862668991089,-0.2791404724121094,0.27940523624420166
1654945876459298000,18.579298095703123,-0.3474487066268921,-0.2564258575439453,0.2570955753326416
1654945876479610000,18.599610107421874,-0.29337048530578613,-0.1848888397216797,-0.24746814370155334
1654945876499935200,18.619935302734376,-0.0009953975677490234,0.010944366455078125,-0.3654842972755432
1654945876520246800,18.640246826171875,-0.04672729969024658,0.11646842956542969,-0.2701936364173889
1654945876540533000,18.660532958984376,0.005085468292236328,0.15977859497070312,-0.13547071814537048
1654945876560844000,18.680843994140623,0.05532336235046387,0.14738845825195312,-0.1606530249118805
1654945876581196300,18.7011962890625,-0.02924656867980957,0.026854515075683594,-0.40658894181251526
1654945876601468200,18.72146826171875,0.041847944259643555,-0.01145172119140625,-0.3263165354728699
1654945876621821700,18.74182177734375,-0.03279614448547363,-0.04844856262207031,-0.012875139713287354
1654945876642098400,18.762098388671873,-0.19854295253753662,-0.046860694885253906,0.06328797340393066
1654945876662436600,18.7824365234375,-0.21327543258666992,-0.12131595611572266,-0.10034080594778061
1654945876682758700,18.802758544921875,-0.22396302223205566,-0.19199848175048828,-0.19543296098709106
1654945876703001900,18.823001953125,0.0022580623626708984,-0.12413883209228516,-0.12833981215953827
1654945876723326500,18.843326416015625,0.21497774124145508,0.04949665069580078,-0.19821041822433472
1654945876743636500,18.863636474609375,-0.0028731822967529297,0.08772468566894531,-0.3709101676940918
1654945876764001300,18.884001220703126,-0.0014002323150634766,0.11700725555419922,-0.22489579021930695
1654945876784284400,18.904284423828123,-0.030301451683044434,0.04569435119628906,-0.005683321505784988
1654945876804671000,18.9246708984375,-0.2150341272354126,0.06440448760986328,-0.04389876872301102
1654945876824953000,18.944953125,-0.18353736400604248,-0.009768486022949219,-0.22251638770103455
1654945876845265000,18.965264892578126,-0.023371577262878418,-0.1305856704711914,-0.15056365728378296
1654945876865776400,18.9857763671875,-0.1771913766860962,0.1239633560180664,-0.3540066182613373
1654945876885876000,19.0058759765625,-0.012433648109436035,-0.018327713012695312,0.1287120282649994
1654945876906398000,19.02639794921875,-0.020533323287963867,-0.05825519561767578,0.23123644292354584
1654945876926492700,19.04649267578125,0.02645576000213623,-0.26784324645996094,0.055100128054618835
1654945876946886100,19.06688623046875,0.2710549831390381,0.15427017211914062,0.2038625180721283
1654945876967105300,19.087105224609374,-0.0030514001846313477,0.1984872817993164,-0.3625892996788025
1654945876987498200,19.107498291015624,0.3567643165588379,0.008570671081542969,-0.0615265816450119
1654945877007789300,19.127789306640626,0.06346249580383301,0.05151176452636719,0.4156299829483032
1654945877028267300,19.148267333984375,-0.2730886936187744,0.016668319702148438,0.23117539286613464
1654945877048614400,19.168614501953126,-0.25481247901916504,0.0762777328491211,-0.13196973502635956
1654945877068702200,19.1887021484375,-0.012972831726074219,-0.1718435287475586,0.0859844982624054
1654945877089054500,19.209054443359374,-0.018108487129211426,-0.04773235321044922,-0.09312450885772705
1654945877109280800,19.22928076171875,-0.20725178718566895,-0.042838096618652344,-0.29323968291282654
1654945877129650400,19.249650390625,0.02843022346496582,-0.009960174560546875,0.30437034368515015
1654945877149870000,19.2698701171875,0.23912322521209717,-0.07513999938964844,0.2636784613132477
1654945877171131000,19.291130859375,0.12823700904846191,-0.04544830322265625,0.053738027811050415
1654945877193878000,19.3138779296875,0.04059553146362305,0.05706310272216797,-0.14542151987552643
1654945877231216000,19.351216064453126,0.07753336429595947,0.06796455383300781,0.1894480586051941
1654945877251571500,19.371571533203124,-0.024332761764526367,-0.024585723876953125,-0.10004345327615738
1654945877271843600,19.391843505859374,-0.1550520658493042,0.017455101013183594,-0.3544948101043701
1654945877292192000,19.41219189453125,-0.14788198471069336,0.013950347900390625,-0.215982586145401
1654945877312441600,19.432441650390626,-0.14322185516357422,-0.1023569107055664,-0.11129504442214966
1654945877332758300,19.45275830078125,-0.13182556629180908,-0.07303047180175781,0.04605977237224579
1654945877353148200,19.473148193359375,0.05063986778259277,0.0016698837280273438,0.07602031528949738
1654945877373366000,19.493365966796876,0.0757753849029541,-0.013821601867675781,-0.26234865188598633
1654945877393724400,19.513724365234374,0.004635214805603027,-0.07013702392578125,-0.20913849771022797
1654945877413979400,19.5339794921875,-0.053868770599365234,0.049248695373535156,0.0563565194606781
1654945877434324500,19.554324462890627,-0.16785657405853271,0.1623697280883789,0.03399088233709335
1654945877454652000,19.57465185546875,0.0679013729095459,0.04172039031982422,0.42232513427734375
1654945877474954000,19.5949541015625,0.008603096008300781,0.058951377868652344,0.3160927891731262
1654945877495259100,19.615259033203124,-0.026377439498901367,-0.0055637359619140625,0.01847521960735321
1654945877515534800,19.635534912109375,0.06152033805847168,-0.049610137939453125,-0.20928415656089783
1654945877536611800,19.65661181640625,0.08606326580047607,-0.027929306030273438,-0.4010029435157776
1654945877556178000,19.676177978515625,0.02757120132446289,-0.025780677795410156,-0.3232054114341736
1654945877576500200,19.696500244140626,-0.013237476348876953,-0.07007980346679688,-0.060677409172058105
1654945877596827000,19.716826904296877,-0.1351076364517212,-0.049610137939453125,0.20041349530220032
1654945877620361000,19.74036083984375,-0.10983431339263916,-0.03818321228027344,0.23801246285438538
1654945877658518800,19.778518798828124,0.05515623092651367,0.042006492614746094,0.11120692640542984
1654945877678851600,19.7988515625,-0.03308570384979248,0.029328346252441406,0.01645803451538086
1654945877699165000,19.8191650390625,0.22070908546447754,0.00014400482177734375,0.21028785407543182
1654945877718666500,19.83866650390625,-0.08217692375183105,0.05997180938720703,-0.1957452893257141
1654945877739033600,19.85903369140625,-0.039745450019836426,-0.055998802185058594,-0.25648564100265503
1654945877759281700,19.87928173828125,-0.044127702713012695,-0.05950641632080078,0.03621113300323486
1654945877779641000,19.89964111328125,-0.16569459438323975,-0.053417205810546875,0.04545024037361145
1654945877799998700,19.919998779296876,-0.26933109760284424,-0.0887451171875,-0.17190025746822357
1654945877820249300,19.940249267578125,-0.11083734035491943,-0.041550636291503906,-0.3012803792953491
1654945877840600600,19.9606005859375,-0.015276432037353516,-0.042168617248535156,-0.17965899407863617
1654945877860893000,19.980892822265623,0.01875901222229004,-0.0006990432739257812,-0.04361523687839508
1654945877881258500,20.001258544921875,0.1657804250717163,0.025213241577148438,0.1292257010936737
1654945877901538600,20.02153857421875,0.15937352180480957,0.08253288269042969,0.038133665919303894
1654945877921919700,20.041919677734374,0.05899548530578613,0.11249732971191406,-0.19484533369541168
1654945877942279700,20.06227978515625,0.16893696784973145,-0.013996124267578125,0.12195425480604172
1654945877962452000,20.082451904296875,-0.09040260314941406,-0.013502120971679688,0.007153183221817017
1654945877982813400,20.1028134765625,-0.1592928171157837,0.058585166931152344,-0.006830617785453796
1654945878003085000,20.1230849609375,0.08640193939208984,-0.008797645568847656,0.040480658411979675
1654945878023420700,20.143420654296875,-0.025162220001220703,-0.037230491638183594,-0.17824281752109528
1654945878043730700,20.163730712890626,-0.14890027046203613,-0.04385852813720703,-0.4133944809436798
1654945878064093200,20.18409326171875,-0.04921221733093262,-0.04532146453857422,-0.2832614481449127
1654945878084297200,20.204297119140627,-0.06652975082397461,-0.013810157775878906,0.05310814082622528
1654945878104721000,20.224720947265624,-0.03150045871734619,-0.054846763610839844,0.25390496850013733
1654945878124940800,20.24494091796875,0.03790152072906494,-0.03642845153808594,0.21062366664409637
1654945878145214500,20.26521435546875,0.05006396770477295,-0.004643440246582031,0.06381981074810028
1654945878165547500,20.285547607421876,0.09327328205108643,0.014254570007324219,0.08350665867328644
1654945878185933300,20.305933349609376,0.05229771137237549,0.03215789794921875,0.10531052947044373
1654945878206171600,20.326171630859374,0.009865283966064453,0.035460472106933594,0.13353025913238525
1654945878226502700,20.346502685546874,0.05324232578277588,0.05459880828857422,0.21615898609161377
1654945878246818000,20.366818115234373,0.07054030895233154,0.04963970184326172,0.10346712172031403
1654945878267167700,20.387167724609377,-0.05398082733154297,-0.029283523559570312,-0.16868068277835846
1654945878287441400,20.40744140625,-0.0822756290435791,-0.06819915771484375,-0.2423718273639679
1654945878307826400,20.427826416015623,-0.07684528827667236,-0.05430889129638672,-0.11235304176807404
1654945878328245200,20.448245361328127,-0.034820556640625,-0.045013427734375,0.0845535397529602
1654945878348641300,20.468641357421873,0.09504234790802002,-0.0033197402954101562,0.10465183854103088
1654945878368726500,20.4887265625,0.21104669570922852,0.018378257751464844,-0.002315312623977661
1654945878389622300,20.509622314453125,0.33330488204956055,0.057537078857421875,0.00235961377620697
1654945878409323300,20.5293232421875,0.26421475410461426,0.07179832458496094,0.07684731483459473
1654945878429677300,20.54967724609375,0.10748004913330078,0.055085182189941406,0.09254719316959381
1654945878449947000,20.56994677734375,-0.01958942413330078,0.020193099975585938,-0.008439898490905762
1654945878470299100,20.590299072265626,-0.05955386161804199,0.021093368530273438,-0.08291314542293549
1654945878490620700,20.61062060546875,-0.05554652214050293,0.06566619873046875,-0.1686006635427475
1654945878510934000,20.63093408203125,-0.08871579170227051,0.016121864318847656,-0.19571271538734436
1654945878531229700,20.651229736328126,-0.1634904146194458,-0.10742664337158203,-0.23084905743598938
1654945878551514600,20.6715146484375,-0.14812076091766357,-0.137939453125,-0.18178564310073853
1654945878571807700,20.691807861328126,-0.06707131862640381,-0.05828666687011719,-0.008182376623153687
1654945878592114200,20.7121142578125,0.06876397132873535,0.0024309158325195312,0.08256499469280243
1654945878612424700,20.7324248046875,0.16800165176391602,0.03986358642578125,0.11951979249715805
1654945878632725200,20.752725341796875,0.17791593074798584,0.08938026428222656,0.16916882991790771
1654945878653040000,20.7730400390625,0.13304948806762695,0.09944629669189453,0.11079806089401245
1654945878673351200,20.79335107421875,-0.00534820556640625,0.07160758972167969,0.0011777430772781372
1654945878693723400,20.813723388671875,-0.14882230758666992,0.016821861267089844,-0.07283015549182892
1654945878713978600,20.833978515625,-0.2121424674987793,-0.04049873352050781,-0.12580879032611847
1654945878735070700,20.85507080078125,-0.27326858043670654,-0.10235786437988281,-0.22487090528011322
1654945878755456500,20.87545654296875,-0.2708030939102173,-0.12665939331054688,-0.28260165452957153
1654945878774956000,20.8949560546875,-0.16083788871765137,-0.11237621307373047,-0.21836577355861664
1654945878795254500,20.915254638671875,-0.026488184928894043,-0.07253360748291016,-0.04601846635341644
1654945878816504800,20.9365048828125,0.11590266227722168,0.014818191528320312,0.07127776741981506
1654945878835876400,20.95587646484375,0.23543894290924072,0.07338142395019531,0.1385141760110855
1654945878856203800,20.976203857421876,0.2761349678039551,0.12009429931640625,0.22866851091384888
1654945878876502000,20.996501953125,0.26021742820739746,0.14118385314941406,0.2578383684158325
1654945878896849200,21.01684912109375,0.11031615734100342,0.09384632110595703,0.08361349999904633
1654945878917158100,21.037158203125,-0.014253377914428711,-0.0006742477416992188,-0.035397693514823914
1654945878940892000,21.060891845703125,-0.12346374988555908,-0.008746147155761719,-0.05157884955406189
1654945878981340400,21.10134033203125,-0.24178409576416016,-0.11017036437988281,-0.27641570568084717
1654945879001460000,21.1214599609375,-0.17350256443023682,-0.12219619750976562,-0.2332054078578949
1654945879039046400,21.15904638671875,0.13509273529052734,0.03328514099121094,0.014716953039169312
1654945879059306200,21.17930615234375,0.17080402374267578,0.06993579864501953,0.0981619656085968
1654945879079677700,21.199677734375,0.16731297969818115,0.049602508544921875,0.21977515518665314
1654945879099964000,21.2199638671875,0.15473949909210205,0.041042327880859375,0.18705657124519348
1654945879120307000,21.240306884765626,0.06358575820922852,0.053017616271972656,0.03911544382572174
1654945879140656600,21.26065673828125,-0.08116865158081055,0.011074066162109375,-0.05837582051753998
1654945879160920800,21.2809208984375,-0.15560531616210938,-0.031646728515625,-0.07172851264476776
1654945879181224200,21.30122412109375,-0.21965038776397705,-0.03798198699951172,-0.06936565041542053
1654945879201561300,21.321561279296876,-0.21729862689971924,-0.0715188980102539,-0.14128294587135315
1654945879221831400,21.34183154296875,-0.15239322185516357,-0.07334423065185547,-0.21915200352668762
1654945879242191600,21.362191650390624,-0.07784879207611084,-0.06763553619384766,-0.18528403341770172
1654945879262468400,21.38246826171875,0.03498077392578125,-0.020143508911132812,-0.09715954959392548
1654945879282862800,21.40286279296875,0.15346002578735352,0.037398338317871094,0.08186115324497223
1654945879303132700,21.423132568359375,0.22058773040771484,0.039554595947265625,0.2124534547328949
1654945879323463400,21.44346337890625,0.23672974109649658,0.07123470306396484,0.24600590765476227
1654945879343810000,21.46381005859375,0.2163769006729126,0.10111331939697266,0.2230800986289978
1654945879364139000,21.484138916015624,0.09721732139587402,0.06235027313232422,0.09989208728075027
1654945879384424400,21.504424560546877,-0.07599842548370361,-0.01221466064453125,-0.00007463991641998291
1654945879404690200,21.524690185546874,-0.12865960597991943,-0.05158519744873047,-0.023147672414779663
1654945879425205800,21.545205810546875,-0.11418020725250244,-0.017736434936523438,0.0006428062915802002
1654945879445239800,21.56523974609375,-0.05805349349975586,-0.008086204528808594,-0.02927364408969879
1654945879465708800,21.585708740234374,-0.025084257125854492,-0.05163097381591797,-0.14343632757663727
1654945879485949000,21.605948974609376,-0.01947760581970215,-0.047097206115722656,-0.11234791576862335
1654945879506188800,21.626188720703126,-0.0018253326416015625,0.010686874389648438,-0.04310902953147888
1654945879526564600,21.646564697265624,0.02511298656463623,0.008806228637695312,0.03663775324821472
1654945879546892500,21.666892578125,0.03933405876159668,0.000011444091796875,0.16143059730529785
1654945879567392000,21.68739208984375,0.07692766189575195,0.018949508666992188,0.1734103560447693
1654945879587522600,21.7075224609375,0.11123526096343994,0.046067237854003906,0.08892101794481277
1654945879607866600,21.72786669921875,0.06390213966369629,0.020940780639648438,0.043186768889427185
1654945879628132400,21.74813232421875,-0.012806296348571777,0.035836219787597656,0.017576202750205994
1654945879648435000,21.76843505859375,-0.0964956283569336,0.008512496948242188,-0.0011098682880401611
1654945879668752100,21.788752197265627,-0.14234662055969238,-0.01088714599609375,-0.0863514393568039
1654945879689024500,21.8090244140625,-0.15392649173736572,-0.02957916259765625,-0.14521561563014984
1654945879709323800,21.82932373046875,-0.1422121524810791,-0.06574821472167969,-0.15304207801818848
1654945879729651000,21.84965087890625,-0.12035417556762695,-0.0698709487915039,-0.1136699914932251
1654945879749983700,21.869983642578124,0.03260982036590576,-0.02707386016845703,0.08319783210754395
1654945879770325800,21.89032568359375,0.16808557510375977,0.072052001953125,0.31830090284347534
1654945879790646500,21.910646484375,0.2624328136444092,0.07951545715332031,0.4401116967201233
1654945879810947000,21.930947021484375,0.2519115209579468,0.035340309143066406,0.2774011492729187
1654945879831287000,21.951287109375,0.16748785972595215,0.03377342224121094,0.033443182706832886
1654945879851569200,21.971569091796876,0.07699763774871826,0.008649826049804688,-0.18397068977355957
1654945879871900200,21.991900146484376,-0.0617748498916626,0.00047206878662109375,-0.20784057676792145
1654945879892202500,22.012202392578125,-0.16307616233825684,-0.0003795623779296875,-0.1646244376897812
1654945879912517400,22.032517333984377,-0.19294452667236328,-0.014882087707519531,-0.22351418435573578
1654945879932800500,22.052800537109373,-0.15854418277740479,-0.03334808349609375,-0.17969150841236115
1654945879953131300,22.07313134765625,-0.15826117992401123,-0.032311439514160156,-0.3382871150970459
1654945879973431800,22.093431884765625,-0.06166386604309082,-0.019438743591308594,-0.3642445206642151
1654945879993766400,22.113766357421873,0.029601573944091797,0.03937244415283203,-0.227731853723526
1654945880014052000,22.134052001953126,0.07634544372558594,-0.026477813720703125,-0.250362753868103
1654945880034373000,22.154373046875,0.0394442081451416,-0.09453010559082031,-0.27330854535102844
1654945880054689300,22.174689208984375,-0.062271952629089355,-0.05359649658203125,-0.14382681250572205
1654945880075044000,22.195044189453125,-0.0707249641418457,-0.04886150360107422,0.03935660421848297
1654945880096230400,22.21623046875,-0.11670529842376709,-0.016651153564453125,0.14907892048358917
1654945880115589400,22.23558935546875,-0.12042021751403809,0.018939971923828125,0.1895768642425537
1654945880135917000,22.2559169921875,-0.032564759254455566,0.08554458618164062,0.1653139740228653
1654945880156231200,22.276231201171875,0.0016618967056274414,0.11013031005859375,0.0655689388513565
1654945880176551000,22.296551025390624,0.02714252471923828,0.043440818786621094,-0.06293201446533203
1654945880196939800,22.316939697265624,0.046105146408081055,-0.020738601684570312,-0.05363965034484863
1654945880217265000,22.337264892578126,0.03345370292663574,-0.010672569274902344,0.010125279426574707
1654945880240062200,22.360062255859376,0.07311439514160156,-0.044757843017578125,0.023652344942092896
1654945880261103000,22.38110302734375,0.10340297222137451,-0.031116485595703125,0.13775864243507385
1654945880281145000,22.40114501953125,0.04053926467895508,-0.089080810546875,0.2831396460533142
1654945880318766000,22.43876611328125,0.12677407264709473,0.06638813018798828,0.06551706790924072
1654945880339068000,22.45906787109375,0.16525959968566895,0.12922000885009766,-0.0521383136510849
1654945880359318800,22.47931884765625,0.18566107749938965,0.09672260284423828,0.0009994804859161377
1654945880379668500,22.49966845703125,0.08845400810241699,0.05582904815673828,0.10232891887426376
1654945880399943700,22.519943603515625,0.0006541013717651367,0.04161548614501953,0.08873432874679565
1654945880420261000,22.54026123046875,-0.028717517852783203,0.00008487701416015625,0.05877202749252319
1654945880440567000,22.560567138671875,-0.06098747253417969,-0.002841949462890625,0.06636589765548706
1654945880460952800,22.580952880859375,-0.025691628456115723,-0.021549224853515625,-0.03451116383075714
1654945880481214000,22.6012138671875,-0.0028078556060791016,-0.04604339599609375,-0.05000308156013489
1654945880501567000,22.62156689453125,0.0450136661529541,-0.07380485534667969,0.08954361081123352
1654945880521814300,22.641814208984375,0.08764064311981201,-0.07031536102294922,0.15458722412586212
1654945880542146000,22.66214599609375,0.09968650341033936,0.04392814636230469,0.1360221803188324
1654945880562497800,22.682497802734375,0.1363389492034912,0.0912618637084961,0.1434071958065033
1654945880582769400,22.702769287109376,0.12002670764923096,0.09003925323486328,0.16027268767356873
1654945880603076600,22.72307666015625,0.06456124782562256,0.05587196350097656,0.13517899811267853
1654945880623412500,22.74341259765625,-0.0025519132614135742,0.08034133911132812,0.10998083651065826
1654945880643718700,22.76371875,-0.06144297122955322,0.06675148010253906,0.04965532571077347
1654945880664011000,22.784010986328123,-0.12106776237487793,0.0118408203125,-0.15433156490325928
1654945880684348400,22.804348388671876,-0.16129732131958008,-0.07110786437988281,-0.26248878240585327
1654945880704652500,22.824652587890625,-0.2888087034225464,-0.1435070037841797,-0.25016894936561584
1654945880724979200,22.844979248046876,-0.27509069442749023,-0.18001556396484375,-0.2215510755777359
1654945880745305900,22.865305908203126,-0.14981579780578613,-0.16370201110839844,-0.17036817967891693
1654945880765570300,22.8855703125,-0.057579874992370605,-0.07587528228759766,-0.008240580558776855
1654945880785953000,22.905953125,0.07597291469573975,-0.04879188537597656,0.000344887375831604
1654945880806329000,22.9263291015625,0.17867159843444824,-0.0020036697387695312,-0.08696770668029785
1654945880826583300,22.946583251953125,0.24192237854003906,0.09571647644042969,-0.08253726363182068
1654945880846916600,22.96691650390625,0.20137333869934082,0.16843032836914062,0.029546573758125305
1654945880867245000,22.9872451171875,0.1212162971496582,0.1870107650756836,0.09565392881631851
1654945880887595000,23.007594970703124,0.020551443099975586,0.10493087768554688,0.018671289086341858
1654945880907880700,23.027880615234373,-0.09359169006347656,0.013850212097167969,-0.17323780059814453
1654945880928157700,23.04815771484375,-0.1912463903427124,-0.06473922729492188,-0.285021036863327
1654945880948484600,23.068484619140627,-0.2583104372024536,-0.16529083251953125,-0.2746250033378601
1654945880968872200,23.0888720703125,-0.2970086336135864,-0.1640605926513672,-0.15279929339885712
1654945880989110300,23.1091103515625,-0.20156633853912354,-0.09733772277832031,-0.0963699221611023
1654945881009358600,23.129358642578126,0.02578866481781006,-0.039653778076171875,-0.17250469326972961
1654945881029700600,23.14970068359375,0.155989408493042,-0.03470325469970703,-0.07396802306175232
1654945881050049500,23.170049560546875,0.20537972450256348,0.021033287048339844,0.10846024006605148
1654945881070361600,23.190361572265626,0.27117013931274414,0.1021280288696289,0.2006373256444931
1654945881090617000,23.2106171875,0.2880859375,0.19103336334228516,0.176690936088562
1654945881110975700,23.230975830078126,0.22273015975952148,0.21100425720214844,0.10721883922815323
1654945881131300900,23.25130078125,0.1362982988357544,0.1232757568359375,0.1107339859008789
1654945881151608000,23.271608154296874,-0.006929636001586914,0.013117790222167969,0.02012866735458374
1654945881171954000,23.291953857421873,-0.1283804178237915,-0.05847740173339844,-0.15065021812915802
1654945881192258800,23.3122587890625,-0.17975401878356934,-0.06029319763183594,-0.28229132294654846
1654945881212465700,23.332465576171874,-0.19223105907440186,-0.08466148376464844,-0.2385539710521698
1654945881232847000,23.35284716796875,-0.18484342098236084,-0.11444473266601562,-0.1275237500667572
1654945881253132300,23.37313232421875,-0.17671501636505127,-0.0805215835571289,-0.15309560298919678
1654945881273490200,23.393490234375,-0.17341279983520508,-0.06163597106933594,-0.21328724920749664
1654945881293759500,23.413759521484376,-0.19555878639221191,-0.06599044799804688,-0.054773494601249695
1654945881314080300,23.434080322265626,-0.2252558469772339,-0.09960269927978516,-0.10071507096290588
1654945881334393300,23.454393310546877,-0.13009941577911377,-0.1064291000366211,-0.39303505420684814
1654945881355460600,23.475460693359373,-0.025530576705932617,-0.048005104064941406,-0.3920801281929016
1654945881375931400,23.495931396484377,0.026560068130493164,0.010707855224609375,-0.14356060326099396
1654945881395317800,23.51531787109375,0.10699701309204102,0.06928539276123047,0.045732155442237854
1654945881415649800,23.53564990234375,0.15061593055725098,0.09546279907226562,0.2048318237066269
1654945881435960300,23.555960205078126,0.21171188354492188,0.1181020736694336,0.4394713044166565
1654945881457634600,23.577634521484374,0.25878989696502686,0.1626148223876953,0.556914210319519
1654945881478181400,23.598181396484375,0.21612703800201416,0.14257335662841797,0.42018458247184753
1654945881517176800,23.6371767578125,-0.04530215263366699,-0.010442733764648438,0.021795637905597687
1654945881538302500,23.658302490234377,-0.10563504695892334,-0.0415191650390625,-0.002136431634426117
1654945881557811000,23.67781103515625,-0.2712951898574829,-0.08976554870605469,0.023509107530117035
1654945881581205500,23.70120556640625,-0.41785240173339844,-0.1887187957763672,-0.07358888536691666
1654945881618802000,23.738802001953125,-0.18793368339538574,-0.18117904663085938,-0.48150500655174255
1654945881639122400,23.759122314453126,0.01958763599395752,-0.03384876251220703,-0.24701926112174988
1654945881659413800,23.779413818359377,0.15471434593200684,0.05284595489501953,0.028494857251644135
1654945881679733800,23.799733642578126,0.3296031951904297,0.17511272430419922,0.22764304280281067
1654945881700032300,23.8200322265625,0.43385350704193115,0.2571592330932617,0.4677347242832184
1654945881720410600,23.84041064453125,0.3827786445617676,0.2958803176879883,0.656040370464325
1654945881740655400,23.8606552734375,0.23067736625671387,0.17516136169433594,0.48525747656822205
1654945881760989000,23.880989013671876,-0.07538807392120361,-0.003931999206542969,0.02257644385099411
1654945881781304000,23.901303955078124,-0.21232068538665771,-0.16468048095703125,-0.17547762393951416
1654945881801682400,23.921682373046874,-0.2351686954498291,-0.1712360382080078,-0.16157373785972595
1654945881821914400,23.941914306640626,-0.22891998291015625,-0.0732431411743164,-0.0379188135266304
1654945881842341400,23.96234130859375,-0.2790353298187256,-0.08465766906738281,-0.1973252147436142
1654945881862637300,23.98263720703125,-0.266951322555542,-0.18033409118652344,-0.6443878412246704
1654945881882860300,24.0028603515625,-0.027746081352233887,-0.17450523376464844,-0.7203723192214966
1654945881903175200,24.023175048828126,0.2105318307876587,-0.08274364471435547,-0.26146399974823
1654945881923531800,24.04353173828125,0.2568705081939697,0.0728902816772461,0.2531147599220276
1654945881943805000,24.063804931640625,0.2688302993774414,0.16260719299316406,0.5349041223526001
1654945881964126500,24.08412646484375,0.393743634223938,0.23218059539794922,0.5662840604782104
1654945881984475000,24.104474853515626,0.48190391063690186,0.21277141571044922,0.5164721608161926
1654945882004654600,24.124654541015627,0.4082130193710327,0.19321441650390625,0.439638614654541
1654945882025292500,24.14529248046875,0.2924007177352905,0.14357280731201172,0.19613975286483765
1654945882045305000,24.16530517578125,0.12159371376037598,0.10461997985839844,0.0672750324010849
1654945882065601300,24.185601318359375,-0.03847837448120117,-0.01864147186279297,0.02184637263417244
1654945882085973500,24.205973388671875,-0.10511624813079834,-0.07757854461669922,-0.0784493237733841
1654945882106353200,24.226353271484374,-0.2380967140197754,-0.12278175354003906,-0.13760848343372345
1654945882126570000,24.246570068359375,-0.372239351272583,-0.16799449920654297,-0.3614990711212158
1654945882146925800,24.26692578125,-0.3961726427078247,-0.1691884994506836,-0.766391396522522
1654945882167215000,24.287215087890626,-0.23105311393737793,-0.12804317474365234,-0.8423770070075989
1654945882187513600,24.307513671875,-0.07983779907226562,-0.13163185119628906,-0.3349362015724182
1654945882207859200,24.327859130859373,-0.17418181896209717,-0.09981727600097656,0.14785614609718323
1654945882228136000,24.348135986328124,-0.11063659191131592,-0.006611824035644531,0.38085806369781494
1654945882248494000,24.368494140625,0.1620396375656128,0.16138362884521484,0.46015939116477966
1654945882268756200,24.388756103515625,0.2783172130584717,0.24380207061767578,0.48677578568458557
1654945882289357800,24.40935791015625,0.27403581142425537,0.22967815399169922,0.3085072338581085
1654945882309365200,24.429365234375,0.15630316734313965,0.14369678497314453,-0.0248757004737854
1654945882329700400,24.449700439453125,-0.0893244743347168,0.02123737335205078,-0.07615470886230469
1654945882350912500,24.47091259765625,-0.22554361820220947,-0.08984088897705078,-0.03587908297777176
1654945882370315300,24.490315185546876,-0.24228334426879883,-0.13902664184570312,-0.10805699229240417
1654945882390643000,24.510642822265623,-0.3127095699310303,-0.15851497650146484,-0.13626864552497864
1654945882410926000,24.530926025390624,-0.38734960556030273,-0.19711971282958984,-0.1871698498725891
1654945882431328800,24.551328857421876,-0.38977479934692383,-0.1361379623413086,-0.28869307041168213
1654945882451608000,24.571608154296875,-0.14188146591186523,-0.0928955078125,-0.3338083326816559
1654945882471922200,24.591922119140627,0.012991666793823242,-0.03703498840332031,-0.28383320569992065
1654945882492283100,24.612283203125,0.1486058235168457,0.04237556457519531,-0.15628671646118164
1654945882512587300,24.632587158203126,0.3156392574310303,0.13696575164794922,0.044929273426532745
1654945882532880400,24.65288037109375,0.3522531986236572,0.19510269165039062,0.24200013279914856
1654945882553132300,24.67313232421875,0.35318660736083984,0.1508464813232422,0.34940680861473083
1654945882573485600,24.693485595703127,0.3176816701889038,0.11185550689697266,0.24406751990318298
1654945882593782300,24.7137822265625,0.12550711631774902,0.04344749450683594,-0.016208313405513763
1654945882614106400,24.7341064453125,-0.0558314323425293,-0.011182785034179688,-0.08062083274126053
1654945882634362600,24.754362548828126,-0.17335402965545654,-0.082061767578125,0.04789692535996437
1654945882655679200,24.77567919921875,-0.3253474235534668,-0.12671947479248047,0.061671555042266846
1654945882675970600,24.795970458984375,-0.37131404876708984,-0.14361572265625,-0.010852918028831482
1654945882695337200,24.815337158203125,-0.35891854763031006,-0.15454483032226562,-0.09355319291353226
1654945882715695400,24.8356953125,-0.2920593023300171,-0.1365032196044922,-0.3000957667827606
1654945882735953200,24.855953125,-0.06613194942474365,-0.09099864959716797,-0.5070204734802246
1654945882756293400,24.87629345703125,0.12534654140472412,-0.03297996520996094,-0.3764370083808899
1654945882776582000,24.896581787109376,0.14037609100341797,-0.020646095275878906,-0.06682811677455902
1654945882796917800,24.916917724609377,0.1955270767211914,0.06981563568115234,0.24657978117465973
1654945882820447700,24.94044775390625,0.25943756103515625,0.1867523193359375,0.45538175106048584
1654945882840830000,24.960829833984373,0.3544743061065674,0.22908973693847656,0.349453866481781
1654945882861099000,24.98109912109375,0.4223536252975464,0.19939136505126953,0.05062948912382126
1654945882881189400,25.001189453125,0.3141094446182251,0.1423177719116211,-0.18489526212215424
1654945882918809900,25.038809814453124,-0.07883179187774658,-0.058582305908203125,-0.006033733487129211
1654945882939127800,25.0591279296875,-0.2561154365539551,-0.13104915618896484,0.089464470744133
1654945882959465500,25.079465576171874,-0.3242452144622803,-0.24382877349853516,-0.15986323356628418
1654945882979746000,25.09974609375,-0.2322843074798584,-0.21290111541748047,-0.4074246287345886
1654945883000070100,25.120070068359375,-0.0328676700592041,-0.08080768585205078,-0.3351480960845947
1654945883020345000,25.140344970703126,0.027614474296569824,0.02596569061279297,-0.05960853397846222
1654945883040676400,25.16067626953125,0.06730186939239502,0.059676170349121094,0.16335366666316986
1654945883061003500,25.18100341796875,0.1966240406036377,0.07111167907714844,0.3024095892906189
1654945883081307100,25.20130712890625,0.32439422607421875,0.1508007049560547,0.38633108139038086
1654945883101656300,25.22165625,0.3676718473434448,0.22888469696044922,0.27224603295326233
1654945883122028300,25.2420283203125,0.3142056465148926,0.18058300018310547,0.0231320858001709
1654945883142367200,25.2623671875,0.1317746639251709,0.08964252471923828,-0.14046010375022888
1654945883162670800,25.2826708984375,-0.054107666015625,-0.03952789306640625,-0.0968710333108902
1654945883182908700,25.30290869140625,-0.2071242332458496,-0.12659931182861328,-0.06809951364994049
1654945883203237400,25.3232373046875,-0.29081296920776367,-0.14508438110351562,-0.05115620046854019
1654945883223489000,25.343489013671874,-0.3095717430114746,-0.14353656768798828,-0.02096184343099594
1654945883243894800,25.363894775390627,-0.2934455871582031,-0.15277385711669922,-0.1463576853275299
1654945883264180200,25.38418017578125,-0.13209259510040283,-0.11730480194091797,-0.27743637561798096
1654945883284401700,25.404401611328126,0.07905173301696777,-0.00673675537109375,-0.21003389358520508
1654945883305007600,25.425007568359376,0.13826167583465576,0.06513118743896484,0.07942546904087067
1654945883325058000,25.44505810546875,0.2556825876235962,0.1615009307861328,0.40415289998054504
1654945883345556500,25.465556396484374,0.3450329303741455,0.2489452362060547,0.5725182890892029
1654945883365781000,25.485781005859376,0.3520132303237915,0.21196937561035156,0.3920474052429199
1654945883386208800,25.506208740234374,0.29442429542541504,0.14523696899414062,0.11649610102176666
1654945883406496300,25.526496337890624,0.07306480407714844,0.06653213500976562,-0.08826234936714172
1654945883426610700,25.546610595703125,-0.12412822246551514,-0.023344039916992188,-0.13929800689220428
1654945883446930000,25.566929931640626,-0.3362247943878174,-0.13717269897460938,-0.08667305111885071
1654945883467344600,25.5873447265625,-0.4523273706436157,-0.20667457580566406,-0.1438170075416565
1654945883487605800,25.607605712890624,-0.4040325880050659,-0.2310657501220703,-0.16350609064102173
1654945883507863000,25.627863037109375,-0.36883604526519775,-0.23053264617919922,-0.16622143983840942
1654945883528287700,25.648287841796876,-0.24711096286773682,-0.12312793731689453,-0.29507485032081604
1654945883548523000,25.66852294921875,0.030707240104675293,0.01731395721435547,-0.3207956552505493
1654945883568942000,25.688942138671877,0.1299515962600708,0.09002399444580078,-0.13237440586090088
1654945883589074400,25.709074462890626,0.1765075922012329,0.16434764862060547,0.10369347035884857
1654945883609570600,25.729570556640624,0.24795234203338623,0.16371631622314453,0.3380895256996155
1654945883629727200,25.749727294921875,0.25061511993408203,0.14844894409179688,0.3150506615638733
