time,seconds_elapsed,z,y,x
1654945858177452500,0.29745263671875,0.04553871229290962,-0.04340824484825134,0.02729659713804722
1654945858197767000,0.317766845703125,0.025299284607172012,0.010918638668954372,0.08275528997182846
1654945858218171000,0.3381708984375,0.03595161437988281,0.12183602899312973,0.14560404419898987
1654945858238397200,0.358397216796875,0.04500609636306763,0.1255643367767334,0.19467133283615112
1654945858258703000,0.378703125,0.021038351580500603,0.06744256615638733,0.17975807189941406
1654945858279020500,0.3990205078125,-0.005126433912664652,0.04507267102599144,0.21064983308315277
1654945858299334000,0.419333984375,0.004993279930204153,0.020505735650658607,0.29060888290405273
1654945858319646500,0.439646484375,0.00978682842105627,0.043474823236465454,0.2613149881362915
1654945858340017200,0.46001708984375,-0.05785546824336052,0.1559234857559204,0.07689651101827621
1654945858360300000,0.480300048828125,-0.11864032596349716,0.2763614058494568,-0.16138280928134918
1654945858380603400,0.500603271484375,-0.0829550251364708,0.2646438181400299,-0.3015275299549103
1654945858400994000,0.520994140625,-0.007256899960339069,0.13302096724510193,-0.2354830801486969
1654945858421306400,0.541306396484375,0.017310036346316338,-0.06844121962785721,-0.007856093347072601
1654945858441533400,0.561533447265625,0.10465914756059647,-0.031158065423369408,0.21224768459796906
1654945858461846800,0.5818466796875,0.2608489394187927,0.012516488321125507,0.2602497339248657
1654945858482144800,0.602144775390625,0.46337637305259705,-0.10153002291917801,0.09021192044019699
1654945858502473200,0.62247314453125,0.7490585446357727,-0.4602472484111786,-0.2764945328235626
1654945858522786000,0.6427861328125,0.9894683361053467,-0.8216275572776794,-0.7993907928466797
1654945858543098000,0.66309814453125,1.136070966720581,-0.9324783682823181,-1.441659688949585
1654945858563411000,0.683410888671875,1.2330738306045532,-1.3391311168670654,-1.966619849205017
1654945858583723000,0.703722900390625,1.1765499114990234,-1.2309433221817017,-2.543376922607422
1654945858604045600,0.724045654296875,1.1173628568649292,0.1020626425743103,-3.119534969329834
1654945858624355800,0.74435595703125,1.1067105531692505,2.5122854709625244,-3.4942305088043213
1654945858644647200,0.764647216796875,0.7592448592185974,4.830299377441406,-3.3972277641296387
1654945858664978000,0.78497802734375,0.2821536064147949,5.371304512023926,-3.0118796825408936
1654945858685270300,0.805270263671875,0.2326202541589737,3.101825475692749,-2.617410659790039
1654945858705597200,0.82559716796875,0.34293845295906067,0.37655988335609436,-2.131331443786621
1654945858725901300,0.8459013671875,0.15159597992897034,-0.4586493968963623,-1.541325569152832
1654945858746287000,0.866287109375,-0.07489919662475586,-0.3067205250263214,-0.9475247859954834
1654945858766559000,0.88655908203125,-0.10479229688644409,-0.027429750189185143,-0.5376763939857483
1654945858786850800,0.906850830078125,-0.32329821586608887,0.7406032681465149,-0.04733629152178764
1654945858807169800,0.927169677734375,-0.4730966091156006,0.9916653633117676,0.4989950954914093
1654945858827496400,0.947496337890625,-0.4293554723262787,0.601523756980896,0.9334104657173157
1654945858847779600,0.967779541015625,-0.2897433936595917,0.2011958807706833,1.1199593544006348
1654945858868094200,0.98809423828125,-0.24120870232582092,0.04187697172164917,1.1087744235992432
1654945858888411600,1.00841162109375,-0.353124737739563,0.6334807872772217,1.0848066806793213
1654945858908719900,1.028719970703125,-0.27216702699661255,1.4351352453231812,1.1151658296585083
1654945858929040600,1.04904052734375,-0.006724283564835787,1.0353399515151978,1.1274160146713257
1654945858949344800,1.0693447265625,0.07216953486204147,0.6617094278335571,0.7878729701042175
1654945858969669400,1.08966943359375,-0.26091551780700684,0.3632444739341736,0.4350811243057251
1654945858990019000,1.11001904296875,-0.49759697914123535,-0.03808208182454109,0.38814428448677063
1654945859010324500,1.130324462890625,-0.8999887704849243,-0.6372090578079224,0.2804891765117645
1654945859030795500,1.15079541015625,-0.8786841034889221,-1.0422639846801758,0.10086425393819809
1654945859050957300,1.170957275390625,-0.43042072653770447,-0.6073159575462341,0.1424083411693573
1654945859071246600,1.19124658203125,-0.20765386521816254,0.10046479105949402,0.3940030634403229
1654945859091600000,1.211599853515625,-0.145803764462471,0.3440702557563782,0.6860766410827637
1654945859111987200,1.2319873046875,-0.08402025699615479,0.19054356217384338,0.7330134510993958
1654945859132172000,1.252172119140625,-0.022170161828398705,-0.002929390873759985,0.5262250900268555
1654945859152565200,1.272565185546875,-0.031757257878780365,-0.10153002291917801,0.34500235319137573
1654945859172822300,1.292822265625,-0.02270277962088585,-0.11431282013654709,0.21171505749225616
1654945859193131500,1.313131591796875,-0.007789516355842352,-0.024234050884842873,0.06464632600545883
1654945859213439200,1.333439208984375,-0.008322132751345634,-0.011983871459960938,-0.1283605843782425
1654945859233726200,1.353726318359375,0.12975870072841644,-0.11164973676204681,-0.3516600430011749
1654945859254037200,1.374037353515625,0.232087641954422,-0.2875463366508484,-0.4609130024909973
1654945859274357500,1.394357421875,0.13881318271160126,-0.615837812423706,-0.43481481075286865
1654945859294674200,1.414674072265625,0.11058450490236282,-0.7315487861633301,-0.29353827238082886
1654945859314994700,1.43499462890625,0.07003907114267349,-0.3616466224193573,-0.08941299468278885
1654945859335296300,1.455296142578125,0.029560215771198273,0.35578784346580505,0.21331290900707245
1654945859355609900,1.47560986328125,0.2219679355621338,0.49706435203552246,0.4131772518157959
1654945859375972000,1.49597216796875,0.34453630447387695,0.11917294561862946,0.3364804685115814
1654945859396229600,1.516229736328125,0.29014283418655396,-0.1889457106590271,0.19520394504070282
1654945859416550000,1.5365498046875,0.27842527627944946,-0.23528334498405457,0.1205710619688034
1654945859436869600,1.55686962890625,0.2736317217350006,-0.15212859213352203,0.10246209800243378
1654945859457168000,1.57716796875,0.17236801981925964,-0.15425905585289001,0.05073172226548195
1654945859477518600,1.5975185546875,-0.03122464381158352,-0.0695064514875412,0.08275528997182846
1654945859497834000,1.617833984375,-0.18741443753242493,0.2337520718574524,0.19254086911678314
1654945859518108700,1.638108642578125,-0.22789329290390015,0.30572187900543213,0.22396524250507355
1654945859538429400,1.658429443359375,-0.251861035823822,0.1687062829732895,0.1211036816239357
1654945859558752300,1.678752197265625,-0.2785584330558777,-0.05246272683143616,0.053394805639982224
1654945859579050800,1.69905078125,-0.3190372884273529,-0.029560215771198273,0.05232957378029823
1654945859599381200,1.71938134765625,-0.22789329290390015,0.1580539494752884,0.12376676499843597
1654945859619786800,1.739786865234375,-0.03974650800228119,0.06957302987575531,0.21011722087860107
1654945859640034300,1.760034423828125,0.03382114693522453,-0.03914731368422508,0.25652143359184265
1654945859660355300,1.780355224609375,-0.01844184659421444,-0.32323163747787476,0.36683961749076843
1654945859680642600,1.800642578125,0.028494983911514282,-0.4927368462085724,0.6541196703910828
1654945859701206500,1.82120654296875,0.20652204751968384,-0.32536211609840393,0.8465273976325989
1654945859721276000,1.84127587890625,0.1787594109773636,-0.008788172155618668,0.9158340692520142
1654945859741582300,1.861582275390625,0.135084867477417,0.4362795054912567,1.0085759162902832
1654945859761995500,1.88199560546875,0.10951927304267883,0.8194971084594727,1.0112390518188477
1654945859782261500,1.902261474609375,0.15798737108707428,0.8194971084594727,0.7041856050491333
1654945859802509000,1.922509033203125,0.19527052342891693,0.42243146896362305,0.27995654940605164
1654945859822812700,1.942812744140625,0.21930484473705292,0.04081173986196518,-0.1480673849582672
1654945859843136300,1.96313623046875,0.09826774895191193,-0.12176945060491562,-0.3244965970516205
1654945859863430000,1.983429931640625,-0.028561560437083244,-0.21610915660858154,-0.3015275299549103
1654945859883745800,2.003745849609375,0.002862813649699092,0.017310036346316338,-0.24187447130680084
1654945859904073000,2.024072998046875,0.07430000603199005,0.4059203565120697,-0.06065170466899872
1654945859924369000,2.044368896484375,0.15159597992897034,0.2950029671192169,-0.025432437658309937
1654945859944700700,2.06470068359375,0.1356174796819687,-0.20385897159576416,-0.13155627250671387
1654945859965105400,2.08510546875,0.1340196281671524,-0.5049870014190674,-0.2146444469690323
1654945859985306600,2.105306640625,0.15798737108707428,-0.6377416849136353,-0.03342168778181076
1654945860005625600,2.12562548828125,0.09666989743709564,-0.631882905960083,0.33321821689605713
1654945860025975300,2.145975341796875,-0.027496326714754105,-0.2214353084564209,0.6775547862052917
1654945860046305500,2.166305419921875,-0.059453319758176804,0.37709248065948486,0.815635621547699
1654945860066563000,2.18656298828125,0.005525896325707436,0.5834147930145264,0.6045197248458862
1654945860086902000,2.206902099609375,0.01298252772539854,0.24760010838508606,0.12856030464172363
1654945860107220000,2.227219970703125,-0.011517832055687904,-0.2411421239376068,-0.23335261642932892
1654945860127523000,2.247523193359375,0.027962366119027138,-0.5039218068122864,-0.2114487588405609
1654945860147834600,2.267834716796875,0.05991935729980469,-0.461312472820282,0.12216891348361969
1654945860168166000,2.288165771484375,0.11697590351104736,-0.11484543234109879,0.39719876646995544
1654945860188457500,2.30845751953125,0.2432725876569748,0.3627118468284607,0.43082016706466675
1654945860208777700,2.32877783203125,0.34719938039779663,0.4666386544704437,0.27995654940605164
1654945860229091000,2.349091064453125,0.2411421239376068,0.1127149686217308,0.03794892504811287
1654945860249406500,2.369406494140625,0.028494983911514282,-0.23901166021823883,-0.18535055220127106
1654945860269783000,2.389782958984375,-0.05785546824336052,-0.3413406014442444,-0.2876794934272766
1654945860290084400,2.41008447265625,0.07802832126617432,-0.18042384088039398,-0.1810896098613739
1654945860310391300,2.430391357421875,0.3285578191280365,0.016244804486632347,0.041677240282297134
1654945860330701000,2.450701171875,0.2619141638278961,0.221501886844635,0.09607070684432983
1654945860351005400,2.47100537109375,0.06311506032943726,0.2955355942249298,0.005459319334477186
1654945860371313000,2.49131298828125,0.017842652276158333,0.3201025128364563,-0.10805457830429077
1654945860391597600,2.51159765625,0.04287562891840935,0.46504080295562744,-0.2013290375471115
1654945860411984100,2.531984130859375,0.13135655224323273,0.5876757502555847,-0.23281998932361603
1654945860432211200,2.552211181640625,0.2640446424484253,0.569500207901001,-0.1390129029750824
1654945860452541700,2.572541748046875,0.24593567848205566,0.6841459274291992,-0.02063889056444168
1654945860472842800,2.5928427734375,0.15851998329162598,1.0225571393966675,0.060918014496564865
1654945860493170200,2.613170166015625,0.09826774895191193,1.4473854303359985,0.07316819578409195
1654945860513473500,2.6334736328125,0.03648423030972481,1.7000453472137451,0.008655018173158169
1654945860533829400,2.653829345703125,-0.07816147059202194,1.726143479347229,-0.04999937489628792
1654945860554148400,2.6741484375,-0.169838085770607,1.9915863275527954,-0.04467320814728737
1654945860574328000,2.694328125,-0.3734307587146759,2.5970380306243896,-0.11657644063234329
1654945860594725400,2.714725341796875,-0.8355421423912048,3.3704638481140137,0.02836182899773121
1654945860614905000,2.734905029296875,-1.3466542959213257,4.241358280181885,0.20053011178970337
1654945860635356000,2.75535595703125,-1.7571018934249878,4.975836753845215,0.07370080798864365
1654945860655665700,2.775665771484375,-2.2410504817962646,5.665508270263672,-0.2876794934272766
1654945860676002300,2.796002197265625,-2.9030263423919678,5.919233798980713,-0.6421357989311218
1654945860696263000,2.816262939453125,-3.9247844219207764,6.180948257446289,-0.5264914035797119
1654945860716622000,2.8366220703125,-5.202398300170898,6.428281784057617,0.41797080636024475
1654945860736931800,2.856931884765625,-6.272091865539551,5.3212385177612305,1.7654240131378174
1654945860757259800,2.877259765625,-6.899980545043945,3.5511538982391357,2.633655548095703
1654945860777623600,2.89762353515625,-6.95916748046875,3.252089738845825,3.0899081230163574
1654945860797865700,2.91786572265625,-6.497588634490967,4.132637977600098,3.734840154647827
1654945860818155300,2.9381552734375,-5.662379264831543,4.917714595794678,4.260931968688965
1654945860838510000,2.958510009765625,-5.3393473625183105,4.381569862365723,4.32757568359375
1654945860858850800,2.978850830078125,-5.263715744018555,3.6124048233032227,4.399478912353516
1654945860879113500,2.999113525390625,-4.887888431549072,3.9849700927734375,4.394152641296387
1654945860899425800,3.01942578125,-4.658197402954102,4.6139235496521,4.049882888793945
1654945860919743200,3.0397431640625,-4.464724540710449,3.636439323425293,3.3095457553863525
1654945860940063000,3.06006298828125,-3.3096790313720703,1.2959891557693481,2.271209955215454
1654945860960339200,3.080339111328125,-1.9068336486816406,-0.29340511560440063,1.3715541362762451
1654945860980651500,3.100651611328125,-1.3115016222000122,-0.6259575486183167,1.002717137336731
1654945861000989700,3.12098974609375,-0.9352080225944519,-0.364309698343277,1.3635648488998413
1654945861021289200,3.141289306640625,-0.01950708031654358,-0.47249743342399597,1.460567593574524
1654945861041592800,3.1615927734375,1.1632344722747803,-1.1846057176589966,1.1828746795654297
1654945861061901600,3.181901611328125,1.5955193042755127,-1.9579648971557617,1.095991611480713
1654945861082237200,3.2022373046875,1.2650307416915894,-1.8193514347076416,1.047456979751587
1654945861102556400,3.222556396484375,0.840735137462616,-1.7799378633499146,0.7287525534629822
1654945861122840300,3.24284033203125,0.5012587308883667,-1.4350686073303223,0.3711005449295044
1654945861143167500,3.26316748046875,-0.03548557683825493,-0.6686334609985352,0.4094489514827728
1654945861163495400,3.283495361328125,-0.7465286254882812,-1.7282074689865112,0.9653674364089966
1654945861183804400,3.303804443359375,-0.6116434931755066,-2.342780351638794,1.737195372581482
1654945861204132900,3.3241328125,0.04447348043322563,-1.6866633892059326,1.6881279945373535
1654945861224446500,3.344446533203125,0.2315550297498703,-0.3701684772968292,0.994195282459259
1654945861244752400,3.36475244140625,-0.11118369549512863,-0.5663045048713684,0.16697527468204498
1654945861265046300,3.38504638671875,-0.6655043363571167,-1.18134343624115,-0.21730753779411316
1654945861285373000,3.405373046875,-0.9378710985183716,-1.5278104543685913,-0.06011908873915672
1654945861305681200,3.42568115234375,-1.1340070962905884,-1.4718856811523438,0.3342834413051605
1654945861326009000,3.446009033203125,-0.8797492980957031,-1.226682424545288,0.2852827310562134
1654945861346321000,3.46632080078125,-0.5295539498329163,-1.38926362991333,-0.6890726089477539
1654945861366624500,3.48662451171875,-0.47629231214523315,-2.581059694290161,-1.0477232933044434
1654945861386957600,3.50695751953125,-0.4512593448162079,-2.7750651836395264,-0.9891354441642761
1654945861407261000,3.527260986328125,-0.5791538953781128,-1.8875929117202759,-0.8595764636993408
1654945861427562500,3.5475625,-0.6330147385597229,-1.1536474227905273,-0.6432009935379028
1654945861447872000,3.5678720703125,-0.3931375741958618,-0.4794214367866516,-0.7914015650749207
1654945861468051500,3.588051513671875,-0.23002375662326813,0.07596442848443985,-1.0866708755493164
1654945861488502800,3.608502685546875,-0.2663082480430603,0.3387441039085388,-1.2902635335922241
1654945861508682500,3.6286826171875,-0.14314068853855133,0.6979939341545105,-1.3563745021820068
1654945861529134800,3.649134765625,-0.10798799991607666,1.056711196899414,-1.5200209617614746
1654945861549444400,3.6694443359375,-0.5754255652427673,0.6478614211082458,-1.595119833946228
1654945861569783300,3.689783203125,-0.9826108813285828,-0.0695064514875412,-1.4176254272460938
1654945861590069000,3.710069091796875,-0.8051164150238037,0.1031278744339943,-1.2844047546386719
1654945861610380800,3.730380859375,-0.678287148475647,0.5775560140609741,-0.820162832736969
1654945861630703400,3.750703369140625,-0.47629231214523315,0.8381386399269104,-0.3009949028491974
1654945861651028500,3.771028564453125,-0.04720313847064972,0.879216730594635,0.14507141709327698
1654945861671301000,3.791301025390625,0.3408080041408539,0.8951951861381531,0.36630702018737793
1654945861691629300,3.81162939453125,0.37489545345306396,0.887205958366394,0.3711005449295044
1654945861711963400,3.83196337890625,0.15053074061870575,1.0865377187728882,0.23568280041217804
1654945861732266800,3.852266845703125,-0.09573781490325928,1.375415563583374,0.04220985993742943
1654945861752568300,3.872568359375,-0.38940924406051636,1.391394019126892,-0.26264652609825134
1654945861772883200,3.89288330078125,-0.5743603110313416,1.275217056274414,-0.5472634434700012
1654945861793175300,3.91317529296875,-0.5802190899848938,1.3567739725112915,-0.7519213557243347
1654945861813509600,3.933509521484375,-0.6724283695220947,1.3509151935577393,-0.8222933411598206
1654945861833822700,3.95382275390625,-0.8627055883407593,1.338132381439209,-0.8515872359275818
1654945861854120700,3.97412060546875,-1.0077104568481445,1.4772119522094727,-0.8809477090835571
1654945861874453500,3.99445361328125,-1.1254853010177612,1.2544450759887695,-0.9075785279273987
1654945861894767400,4.014767333984375,-1.2421948909759521,0.7987250089645386,-1.0003204345703125
1654945861915075000,4.035074951171875,-1.2736191749572754,0.7827465534210205,-1.137802004814148
1654945861935393800,4.055393798828125,-1.2160966396331787,1.2096387147903442,-1.0653661489486694
1654945861955703800,4.075703857421875,-1.1036479473114014,1.9355950355529785,-0.5744268894195557
1654945861976031200,4.09603125,-0.9746216535568237,2.7356514930725098,-0.21837277710437775
1654945861996320800,4.11632080078125,-1.0545806884765625,3.9044785499572754,-0.688539981842041
1654945862016647000,4.13664697265625,-0.9261535406112671,4.827636241912842,0.01983996480703354
1654945862037010000,4.157010009765625,-0.6798849701881409,2.3737385272979736,1.0202934741973877
1654945862057323000,4.177322998046875,-0.5839474201202393,0.4618450999259949,0.6147060394287109
1654945862077640200,4.19764013671875,-0.4517919421195984,0.9879370331764221,0.27889132499694824
1654945862097883600,4.217883544921875,-0.12130340933799744,1.3791438341140747,0.4787556529045105
1654945862118291700,4.238291748046875,0.1462698131799698,1.3599697351455688,0.9339430332183838
1654945862138561300,4.258561279296875,-0.11224892735481262,1.0252201557159424,0.5698996782302856
1654945862158845200,4.27884521484375,-0.3867461681365967,0.8360081911087036,-0.38148656487464905
1654945862179193600,4.299193603515625,-0.3195699155330658,1.1046466827392578,-0.5398068428039551
1654945862199502000,4.319502197265625,-0.2321542203426361,0.9921979904174805,-0.46677178144454956
1654945862219757800,4.3397578125,-0.06424686312675476,1.1025161743164062,-0.3889431953430176
1654945862240074800,4.36007470703125,0.20006407797336578,1.2645647525787354,-0.45611947774887085
1654945862260400400,4.380400390625,0.3173728585243225,1.5011796951293945,-0.673027515411377
1654945862280710100,4.400710205078125,0.16224829852581024,1.6872625350952148,-0.7295514941215515
1654945862301025800,4.42102587890625,0.11484543234109879,1.7586331367492676,-0.7284862399101257
1654945862321337900,4.441337890625,0.2528596818447113,1.7687528133392334,-0.6751580238342285
1654945862341659100,4.4616591796875,0.47243085503578186,1.7607636451721191,-0.5254262089729309
1654945862361942300,4.4819423828125,0.6153052449226379,1.7415894269943237,-0.3862801194190979
1654945862382257000,4.5022568359375,0.6840793490409851,1.7479808330535889,-0.25359204411506653
1654945862402600000,4.522599853515625,0.6520557403564453,1.69365394115448,-0.06331478804349899
1654945862422916400,4.542916259765625,0.623294472694397,1.6163579225540161,0.1413431018590927
1654945862443242500,4.563242431640625,0.6430012583732605,1.6509780883789062,0.26770636439323425
1654945862463543000,4.58354296875,0.6541862487792969,1.8199505805969238,0.3241637349128723
1654945862483828200,4.603828125,0.630218505859375,1.9435842037200928,0.3289572596549988
1654945862504153600,4.624153564453125,0.5539877414703369,2.0491089820861816,0.28954365849494934
1654945862524457000,4.64445703125,0.49753040075302124,2.1024370193481445,0.21544337272644043
1654945862544768500,4.6647685546875,0.5598465204238892,2.041652202606201,0.19946488738059998
1654945862565082400,4.685082275390625,0.6915359497070312,1.8786050081253052,0.2959350347518921
1654945862585391900,4.705391845703125,0.7880061268806458,1.7671550512313843,0.4563857614994049
1654945862605707500,4.72570751953125,0.7816147208213806,1.5193551778793335,0.536877453327179
1654945862626020600,4.7460205078125,0.6600450277328491,1.2693582773208618,0.5704323053359985
1654945862646329000,4.7663291015625,0.5225633978843689,1.2746844291687012,0.5890738368034363
1654945862666675500,4.786675537109375,0.44260433316230774,1.3738176822662354,0.5704323053359985
1654945862686993200,4.8069931640625,0.3285578191280365,1.4196892976760864,0.6621088981628418
1654945862707274500,4.8272744140625,0.17982465028762817,1.2101713418960571,0.7686987519264221
1654945862727612400,4.8476123046875,0.03541899845004082,0.771028995513916,0.6727612018585205
1654945862747933000,4.867932861328125,-0.1553908735513687,0.5993933081626892,0.43028756976127625
1654945862768238800,4.88823876953125,-0.2444044053554535,0.887205958366394,0.2090519815683365
1654945862788544000,4.9085439453125,-0.16178226470947266,1.1046466827392578,0.22236739099025726
1654945862808858000,4.928858154296875,-0.03442034125328064,0.7694311141967773,0.41637295484542847
1654945862829166600,4.94916650390625,0.0012649642303586006,0.24546962976455688,0.6082480549812317
1654945862849482000,4.96948193359375,-0.1250317245721817,0.13302096724510193,0.7857425212860107
1654945862869803500,4.989803466796875,-0.31477636098861694,0.9431306719779968,0.8827452659606934
1654945862890194200,5.010194091796875,-0.4139096140861511,1.9974451065063477,0.8401359915733337
1654945862910450700,5.03045068359375,-0.5487947463989258,2.3033666610717773,0.8742234110832214
1654945862930743600,5.05074365234375,-0.6346125602722168,1.9846622943878174,0.9835429787635803
1654945862951051300,5.07105126953125,-0.578088641166687,1.7394589185714722,0.9579107761383057
1654945862971369000,5.091368896484375,-0.2673735022544861,1.9244099855422974,0.6466630101203918
1654945862991683300,5.111683349609375,0.4351477026939392,1.7362632751464844,0.39613354206085205
1654945863011996000,5.131995849609375,0.5241612195968628,1.452178955078125,0.4979298710823059
1654945863032309500,5.1523095703125,0.4346150755882263,1.6014447212219238,0.404655396938324
1654945863052620500,5.17262060546875,0.39946237206459045,1.7037736177444458,0.38548120856285095
1654945863072948200,5.1929482421875,0.2960681915283203,1.6190210580825806,0.3924052119255066
1654945863093260800,5.2132607421875,0.14840027689933777,1.4867990016937256,0.3273594379425049
1654945863113647900,5.23364794921875,0.019973119720816612,1.3807417154312134,0.273032546043396
1654945863133917700,5.253917724609375,-0.05359453707933426,1.2278141975402832,0.22023692727088928
1654945863154267100,5.27426708984375,-0.02802894450724125,1.0412652492523193,0.21011722087860107
1654945863174595300,5.29459521484375,-0.002463351469486952,0.8856080770492554,0.24320600926876068
1654945863194887700,5.3148876953125,-0.04081173986196518,0.8189644813537598,0.2543909549713135
1654945863215333600,5.335333740234375,-0.11810771375894547,0.8290841579437256,0.23408496379852295
1654945863235469600,5.355469482421875,-0.19220797717571259,0.9404675960540771,0.19254086911678314
1654945863255837000,5.3758369140625,-0.24120870232582092,1.0673635005950928,0.17816022038459778
1654945863276130600,5.396130615234375,-0.26038289070129395,1.059374213218689,0.19360610842704773
1654945863296458800,5.416458740234375,-0.28441721200942993,0.9250217080116272,0.2069215178489685
1654945863316780000,5.436780029296875,-0.3403419554233551,0.9351414442062378,0.17176882922649384
1654945863337163300,5.457163330078125,-0.3973985016345978,1.0849398374557495,0.10512518137693405
1654945863357330700,5.47733056640625,-0.41337698698043823,1.0860050916671753,0.06411371380090714
1654945863377678800,5.497678955078125,-0.41231176257133484,0.9810130596160889,0.04274247586727142
1654945863398097000,5.518096923828125,-0.407518208026886,0.9021192193031311,-0.011584409512579441
1654945863418325500,5.538325439453125,-0.4293554723262787,0.9101084470748901,-0.0521298423409462
1654945863438736600,5.558736572265625,-0.4533897936344147,0.9469255805015564,-0.07982590049505234
1654945863458949000,5.57894921875,-0.44586658477783203,0.9074453711509705,-0.12190260738134384
1654945863479225300,5.599225341796875,-0.5167711973190308,0.8600425124168396,-0.21784014999866486
1654945863499516200,5.61951611328125,-0.5679689049720764,0.6734935641288757,-0.26158127188682556
1654945863519885300,5.63988525390625,-0.6548519730567932,0.5311518311500549,-0.3330184817314148
1654945863540204300,5.660204345703125,-0.802453339099884,0.6260241270065308,-0.4923373758792877
1654945863560594000,5.680593994140625,-0.9155011773109436,0.8866733312606812,-0.6655709147453308
1654945863580913000,5.700912841796875,-0.9352080225944519,1.172888159751892,-0.7935320138931274
1654945863601174000,5.721174072265625,-0.9101750254631042,1.358904480934143,-0.9854071140289307
1654945863621645000,5.74164501953125,-0.9927306175231934,1.4867990016937256,-1.379276990890503
1654945863641768000,5.761767822265625,-1.2565754652023315,1.5097681283950806,-1.865356206893921
1654945863662069500,5.782069580078125,-1.368491530418396,1.5353336334228516,-2.232595205307007
1654945863682403300,5.8024033203125,-1.1558444499969482,1.3999159336090088,-2.3584258556365967
1654945863702774300,5.822774169921875,-0.8632382154464722,1.0444610118865967,-2.1867902278900146
1654945863723000600,5.84300048828125,-0.5914040803909302,0.8344103693962097,-1.7529075145721436
1654945863743328300,5.863328369140625,-0.28175413608551025,0.8557815551757812,-1.4186906814575195
1654945863763751000,5.8837509765625,0.027962366119027138,1.0673635005950928,-1.2774807214736938
1654945863783988200,5.90398828125,0.29174068570137024,1.4697552919387817,-1.2551108598709106
1654945863804337400,5.92433740234375,0.5321504473686218,1.9451820850372314,-1.2220220565795898
1654945863824605700,5.944605712890625,0.7272212505340576,2.2793989181518555,-1.1751517057418823
1654945863845033200,5.965033203125,0.8690304160118103,2.323606014251709,-1.1079754829406738
1654945863865351400,5.985351318359375,0.939335823059082,2.191450595855713,-0.9475247859954834
1654945863885589500,6.005589599609375,1.0118381977081299,2.127470016479492,-0.8100431561470032
1654945863905834800,6.025834716796875,1.1850717067718506,2.171743869781494,-0.7689650654792786
1654945863926141700,6.0461416015625,1.336467981338501,2.309225559234619,-0.9006544947624207
1654945863946436900,6.066436767578125,1.2309433221817017,2.485654592514038,-1.0850729942321777
1654945863966831400,6.086831298828125,1.043329119682312,2.3833258152008057,-1.1202256679534912
1654945863987067400,6.1070673828125,0.9601744413375854,2.267148733139038,-1.0595073699951172
1654945864007446800,6.12744677734375,0.8402025699615479,2.2756705284118652,-0.9997877478599548
1654945864027716600,6.147716552734375,0.6952642798423767,2.28579044342041,-0.9198287129402161
1654945864048044000,6.1680439453125,0.5769568085670471,2.2506375312805176,-0.7812818288803101
1654945864068343000,6.188343017578125,0.4777570068836212,2.004369020462036,-0.6213637590408325
1654945864088597000,6.208596923828125,0.413843035697937,1.647782325744629,-0.5094476938247681
1654945864108882700,6.228882568359375,0.4053211510181427,1.4073725938796997,-0.4076513648033142
1654945864129232400,6.249232421875,0.46284374594688416,1.2251511812210083,-0.2786250114440918
1654945864149537300,6.269537353515625,0.5412049293518066,1.0023176670074463,-0.1608501821756363
1654945864169856300,6.289856201171875,0.5822830200195312,0.8541837334632874,-0.09633701294660568
1654945864190208500,6.31020849609375,0.623294472694397,0.8269537091255188,-0.0521298423409462
1654945864210469600,6.3304697265625,0.6920685768127441,0.8573794364929199,-0.015312724746763706
1654945864230764300,6.350764404296875,0.7336126565933228,0.988469660282135,0.012383334338665009
1654945864251080000,6.371079833984375,0.7202972769737244,1.2096387147903442,0.0347532257437706
1654945864271417600,6.39141748046875,0.6718291640281677,1.5550404787063599,0.021437814459204674
1654945864291716000,6.411716064453125,0.6488600373268127,1.8396574258804321,0.00226362026296556
1654945864312033500,6.432033447265625,0.6051855087280273,1.8348639011383057,-0.06757572293281555
1654945864332385800,6.4523857421875,0.5369440317153931,1.6952518224716187,-0.11923952400684357
1654945864352682800,6.472682861328125,0.5268242955207825,1.6270103454589844,-0.026497671380639076
1654945864372958200,6.492958251953125,0.5475963354110718,1.5763450860977173,0.18401899933815002
1654945864393293600,6.51329345703125,0.5491942167282104,1.4537767171859741,0.40518802404403687
1654945864413610500,6.533610595703125,0.5310852527618408,1.13613760471344,0.6439999341964722
1654945864433924400,6.55392431640625,0.5380092263221741,0.5114449858665466,0.9264864325523376
1654945864454240500,6.574240478515625,0.5977289080619812,-0.2011958807706833,1.172222375869751
1654945864474585900,6.5945859375,0.616370439529419,-0.5524564981460571,1.2057771682739258
1654945864494867200,6.6148671875,0.5961310267448425,-0.7005904316902161,1.280942678451538
1654945864515188500,6.6351884765625,0.49699777364730835,-0.9985893964767456,1.3182258605957031
1654945864535500000,6.6555,0.31470978260040283,-0.8434648513793945,1.2222883701324463
1654945864555882800,6.6758828125,0.14840027689933777,-0.2774266302585602,1.0463917255401611
1654945864576167700,6.696167724609375,0.13774794340133667,-0.1254977583885193,1.1082417964935303
1654945864596480300,6.716480224609375,0.1782267987728119,-0.27103522419929504,1.2947907447814941
1654945864616732400,6.736732421875,0.1878138929605484,-0.5503259897232056,1.3198237419128418
1654945864637255400,6.75725537109375,-0.0035285844933241606,-1.0907986164093018,1.1738202571868896
1654945864657431300,6.777431396484375,-0.16018441319465637,-1.1067770719528198,0.9243559837341309
1654945864677723000,6.797722900390625,-0.0019307348411530256,-0.7059165835380554,0.6248257160186768
1654945864698048800,6.818048828125,0.2422073632478714,-0.2326202541589737,0.42596006393432617
1654945864718383000,6.838383056640625,0.26670771837234497,-0.06311506032943726,0.3487306535243988
1654945864738730200,6.858730224609375,0.11005188524723053,-0.15372644364833832,0.36417654156684875
1654945864759133700,6.8791337890625,-0.06904041767120361,-0.09833431988954544,0.4147751033306122
1654945864779314200,6.899314208984375,-0.08828118443489075,0.2011958807706833,0.45212483406066895
1654945864799830000,6.919830078125,-0.023235395550727844,0.31211328506469727,0.46117931604385376
1654945864820192300,6.940192138671875,0.05512581020593643,0.2523936629295349,0.46330979466438293
1654945864840419300,6.96041943359375,0.10678961127996445,0.1468690037727356,0.5347470045089722
1654945864860572000,6.980572021484375,0.08868064731359482,0.009320789016783237,0.5890738368034363
1654945864880940800,7.00094091796875,0.0476691760122776,-0.11537805199623108,0.62269526720047
1654945864901295600,7.021295654296875,0.018375270068645477,-0.19373925030231476,0.6466630101203918
1654945864921501700,7.041501708984375,-0.01364829856902361,-0.21397867798805237,0.659978449344635
1654945864941777700,7.061777587890625,-0.06637733429670334,-0.23475073277950287,0.6386737823486328
1654945864962133200,7.08213330078125,-0.10266183316707611,-0.2966008186340332,0.6482608914375305
1654945864982640600,7.102640625,-0.10159660130739212,-0.48687806725502014,0.7314156293869019
1654945865002694000,7.12269384765625,-0.11650986224412918,-0.7304835319519043,0.8012549877166748
1654945865023055000,7.14305517578125,-0.21298003196716309,-0.7768211960792542,0.7569811940193176
1654945865043524000,7.163524169921875,-0.32436347007751465,-0.5647066831588745,0.6573153734207153
1654945865063680800,7.1836806640625,-0.3638436496257782,-0.34666678309440613,0.5342143774032593
1654945865084028000,7.20402783203125,-0.30518925189971924,-0.24487043917179108,0.3705679476261139
1654945865104352800,7.224352783203125,-0.10905323177576065,-0.3845491111278534,0.2751629948616028
1654945865124697300,7.244697265625,0.04181039705872536,-0.7656362652778625,0.2079867422580719
1654945865144917000,7.2649169921875,-0.19700153172016144,-0.7890713810920715,-0.08674991130828857
1654945865165286100,7.2852861328125,-0.5945997834205627,-0.2955355942249298,-0.5904719829559326
1654945865185528300,7.3055283203125,-0.6532541513442993,-0.10525833815336227,-1.06003999710083
1654945865206057000,7.326056884765625,-0.5535882711410522,-0.08448629081249237,-1.6921226978302002
1654945865226174500,7.346174560546875,-0.4954665005207062,0.21031694114208221,-2.341315507888794
1654945865246490000,7.366489990234375,-0.5013253092765808,0.9890022873878479,-2.8913753032684326
1654945865266896600,7.386896728515625,-0.515705943107605,1.8061026334762573,-3.1227304935455322
1654945865287127300,7.407127197265625,-0.23481731116771698,1.1952580213546753,-2.803959608078003
1654945865307447000,7.427447021484375,0.06577813625335693,-0.009320789016783237,-2.008230447769165
1654945865327745000,7.4477451171875,0.251261830329895,0.1031278744339943,-1.6447198390960693
1654945865348084200,7.468084228515625,0.1659766137599945,1.3700894117355347,-1.8445841073989868
1654945865368336100,7.488336181640625,-0.12982527911663055,2.453697681427002,-2.103102922439575
1654945865388694300,7.5086943359375,-0.3493964374065399,2.3455100059509277,-2.0577638149261475
1654945865408986600,7.528986572265625,-0.31264588236808777,1.754372239112854,-1.781668782234192
1654945865429290200,7.549290283203125,-0.145803764462471,1.4974513053894043,-1.5674238204956055
1654945865449775900,7.56977587890625,0.03808208182454109,1.4596354961395264,-1.3846031427383423
1654945865469912000,7.589912109375,0.21664176881313324,1.609966516494751,-1.2156306505203247
1654945865490232800,7.61023291015625,0.3157750070095062,1.6488475799560547,-1.0962579250335693
1654945865510559700,7.630559814453125,0.3599821925163269,1.5316053628921509,-1.0333425998687744
1654945865530876000,7.6508759765625,0.46337637305259705,1.4420591592788696,-1.0040487051010132
1654945865551122400,7.671122314453125,0.5529224872589111,1.3935245275497437,-0.9198287129402161
1654945865571488000,7.691488037109375,0.6115769147872925,1.3370671272277832,-0.6149723529815674
1654945865591782100,7.7117822265625,0.6169030666351318,1.2581733465194702,-0.234950453042984
1654945865612134100,7.732134033203125,0.576424241065979,1.1254186630249023,-0.0014646954368799925
1654945865632423000,7.7524228515625,0.5246938467025757,0.8423995971679688,0.1205710619688034
1654945865652724700,7.772724853515625,0.5017913579940796,0.6585137248039246,0.2191716879606247
1654945865673031400,7.793031494140625,0.48421499133110046,0.6601116061210632,0.34500235319137573
1654945865693344000,7.813343994140625,0.5252264738082886,0.5444672107696533,0.5016582012176514
1654945865713681700,7.833681640625,0.561976969242096,0.2880789637565613,0.6179017424583435
1654945865734002200,7.854002197265625,0.4452674090862274,0.0924755409359932,0.43241801857948303
1654945865754355500,7.87435546875,0.21664176881313324,0.047735754400491714,0.11417966336011887
1654945865774662400,7.894662353515625,0.1547916680574417,0.4250945448875427,0.010785484686493874
1654945865794964500,7.914964599609375,0.2661750912666321,0.9079779982566833,0.08541837334632874
1654945865815300900,7.93530078125,0.31151407957077026,1.020426630973816,0.09873378276824951
1654945865835587300,7.95558740234375,0.27789267897605896,0.872292697429657,0.08488575369119644
1654945865855934700,7.975934814453125,0.24700090289115906,0.5386084318161011,0.36470916867256165
1654945865876159200,7.9961591796875,0.285881906747818,0.18575000762939453,0.8284184336662292
1654945865896484000,8.016484130859375,0.46124589443206787,-0.34506893157958984,1.1924618482589722
1654945865916922000,8.036922119140625,0.5172371864318848,-0.8455953001976013,1.4375985860824585
1654945865937135000,8.057135009765625,0.6392729878425598,-1.0161657333374023,1.374749779701233
1654945865957622300,8.077622314453125,0.6339467763900757,-1.647249698638916,1.5794076919555664
1654945865978024000,8.09802392578125,0.5023239254951477,-2.0208802223205566,1.762760877609253
1654945865998182100,8.11818212890625,0.15905261039733887,-0.9303479194641113,1.495187759399414
1654945866018377000,8.138376953125,-0.08774857223033905,-0.24540305137634277,1.2467886209487915
1654945866038681000,8.15868115234375,0.06471290439367294,-0.8071803450584412,1.2782796621322632
1654945866059079200,8.1790791015625,0.34453630447387695,-1.3657618761062622,1.232408046722412
1654945866079387000,8.199386962890625,0.29174068570137024,-1.5965845584869385,1.0075106620788574
1654945866099798300,8.21979833984375,0.11697590351104736,-1.3716872930526733,0.7511224150657654
1654945866120011300,8.24001123046875,0.06204982474446297,-0.5785546898841858,0.49260368943214417
1654945866140339700,8.260339599609376,0.13721533119678497,-0.41916918754577637,0.4372115731239319
1654945866160594400,8.280594482421876,0.17503109574317932,-0.43141937255859375,0.43028756976127625
1654945866180853800,8.300853759765625,0.07749570161104202,-0.14307411015033722,0.32948988676071167
1654945866201155000,8.321155029296875,0.04926702752709389,0.04294220730662346,0.3359478712081909
1654945866221478700,8.341478759765625,0.1132475882768631,-0.102595254778862,0.46011409163475037
1654945866241860600,8.361860595703124,0.11963898688554764,-0.2523270845413208,0.5965304970741272
1654945866262192000,8.382192138671876,0.07483261823654175,-0.2630459666252136,0.6807504892349243
1654945866282462700,8.402462646484375,0.04340824484825134,-0.44533398747444153,0.7441984415054321
1654945866302745900,8.422745849609376,-0.02163754589855671,-0.5684349536895752,0.807113766670227
1654945866323171300,8.44317138671875,-0.06264901906251907,-0.5167046189308167,0.8593101501464844
1654945866343391200,8.46339111328125,-0.07489919662475586,-0.41117995977401733,0.9328778386116028
1654945866363694800,8.48369482421875,-0.13781452178955078,-0.3051226735115051,0.9600412845611572
1654945866384022500,8.5040224609375,-0.22469758987426758,-0.15425905585289001,0.9227581024169922
1654945866404297500,8.52429736328125,-0.2774932086467743,-0.030625449493527412,0.8555818200111389
1654945866424600000,8.54460009765625,-0.25878503918647766,-0.029027599841356277,0.7937317490577698
1654945866444934000,8.564933837890624,-0.200197234749794,-0.10898665338754654,0.7319482564926147
1654945866465233200,8.585233154296875,-0.19646891951560974,-0.17616291344165802,0.6551848649978638
1654945866485533200,8.605533203125,-0.306254506111145,-0.14307411015033722,0.49420154094696045
1654945866505873200,8.625873046875,-0.34779858589172363,-0.0583215095102787,0.2698368430137634
1654945866526165000,8.6461650390625,-0.19220797717571259,-0.22409839928150177,0.12536461651325226
1654945866546492700,8.66649267578125,-0.032822493463754654,-0.5742937326431274,0.008122402243316174
1654945866566870000,8.6868701171875,-0.12023817747831345,-0.6131747364997864,-0.34952959418296814
1654945866587126300,8.707126220703126,-0.4288228750228882,-0.3093836307525635,-0.9992551803588867
1654945866607491300,8.7274912109375,-0.4890751242637634,-0.24646829068660736,-1.5269449949264526
1654945866627783700,8.74778369140625,-0.36863720417022705,-0.1990654170513153,-2.171876907348633
1654945866648069600,8.768069580078125,-0.3440702557563782,0.3403419554233551,-2.8775272369384766
1654945866668446200,8.7884462890625,-0.5663710832595825,1.4931904077529907,-3.4270544052124023
1654945866688764200,8.80876416015625,-0.6121761202812195,1.1941927671432495,-3.3204643726348877
1654945866709323300,8.8293232421875,-0.5573166012763977,-0.413843035697937,-2.36641526222229
1654945866729815000,8.84981494140625,-0.3542565703392029,-1.0672968626022339,-1.7379943132400513
1654945866749642000,8.86964208984375,-0.19380582869052887,-0.14254149794578552,-1.9469131231307983
1654945866770030600,8.890030517578126,-0.23481731116771698,1.0151004791259766,-2.2064969539642334
1654945866790452200,8.9104521484375,-0.30199354887008667,1.351980447769165,-2.0791351795196533
1654945866810596000,8.93059619140625,-0.21937142312526703,1.0556459426879883,-1.8531060218811035
1654945866830950000,8.950949951171875,-0.041344355791807175,0.46610602736473083,-1.7305376529693604
1654945866851268000,8.97126806640625,0.14147625863552094,0.251861035823822,-1.586065411567688
1654945866871523600,8.991523681640626,0.23368549346923828,0.6910699009895325,-1.3441243171691895
1654945866891851500,9.0118515625,0.2645772397518158,1.0694940090179443,-1.0957252979278564
1654945866912151300,9.0321513671875,0.3296230435371399,1.0817441940307617,-0.9838092923164368
1654945866932439600,9.052439453125,0.5087153315544128,1.235803484916687,-1.0056465864181519
1654945866952766700,9.0727666015625,0.6915359497070312,1.2256836891174316,-0.8206954598426819
1654945866973040600,9.09304052734375,0.7656362652778625,1.0076438188552856,-0.3458012640476227
1654945866993384400,9.113384521484376,0.7629731297492981,0.8029859662055969,0.047003407031297684
1654945867013683700,9.13368359375,0.7133732438087463,0.8498561978340149,0.218639075756073
1654945867034013200,9.15401318359375,0.6920685768127441,0.958110511302948,0.3790898025035858
1654945867054290200,9.174290283203124,0.7043187618255615,0.934076189994812,0.559779942035675
1654945867074609200,9.194609130859375,0.7619079351425171,0.8147035241127014,0.7025877833366394
1654945867094953700,9.21495361328125,0.8263545036315918,0.5742937326431274,0.7782858610153198
1654945867115332900,9.235332763671876,0.6915359497070312,0.4581167697906494,0.6354780793190002
1654945867135564500,9.255564453125,0.4346150755882263,0.5684349536895752,0.24693432450294495
1654945867155870000,9.275869873046876,0.20226112008094788,0.9788825511932373,0.10139686614274979
1654945867176187000,9.296186767578124,0.11218235641717911,1.5582362413406372,0.18242116272449493
1654945867196625400,9.31662548828125,0.20006407797336578,1.5768777132034302,0.10139686614274979
1654945867216832500,9.33683251953125,0.23421810567378998,1.1723555326461792,-0.18694838881492615
1654945867237163500,9.35716357421875,0.08655018359422684,0.8733579516410828,-0.11178289353847504
1654945867257506800,9.3775068359375,-0.11917294561862946,0.437877357006073,0.4446682035923004
1654945867277794800,9.397794921875,-0.2865476906299591,-0.5599130988121033,1.1449923515319824
1654945867298900200,9.418900146484376,-0.27110180258750916,-1.8071012496948242,1.6652255058288574
1654945867318421200,9.438421142578125,0.05938674136996269,-2.0320651531219482,1.5884621143341064
1654945867338711600,9.458711669921875,0.2661750912666321,-1.7996445894241333,1.3987175226211548
1654945867359031300,9.47903125,0.1238999143242836,-1.9120932817459106,1.388065218925476
1654945867379329800,9.499329833984374,-0.022170161828398705,-1.1067770719528198,1.309171438217163
1654945867399840000,9.519840087890625,-0.09573781490325928,-0.418103963136673,1.1252855062484741
1654945867420266800,9.540266845703124,0.020505735650658607,-0.506584882736206,0.8049832582473755
1654945867440365600,9.560365478515624,0.18515081703662872,-0.23368549346923828,0.7255568504333496
1654945867460563000,9.58056298828125,0.34506893157958984,-0.027429750189185143,0.7617747783660889
1654945867480906800,9.60090673828125,0.5188350677490234,-0.2981986701488495,0.8342772126197815
1654945867501214200,9.621214111328126,0.22889193892478943,-0.32163378596305847,0.8401359915733337
1654945867521771300,9.641771240234375,-0.1037270650267601,0.06371425092220306,0.7335460782051086
1654945867541914400,9.661914306640625,-0.13248835504055023,0.20978432893753052,0.5400731563568115
1654945867562163700,9.682163818359374,-0.10212921351194382,0.24973057210445404,0.40572062134742737
1654945867582478600,9.702478515625,-0.06690994650125504,0.4405404329299927,0.3386109471321106
1654945867602883600,9.722883544921874,0.016244804486632347,0.4591820240020752,0.35405683517456055
1654945867623179800,9.7431796875,0.11857374757528305,0.25878503918647766,0.48301661014556885
1654945867643513300,9.763513427734376,0.15372644364833832,0.005592473316937685,0.6551848649978638
1654945867663813000,9.783813232421876,0.09400681406259537,-0.21344606578350067,0.7713618874549866
1654945867684108300,9.8041083984375,-0.0003328853053972125,-0.3424058258533478,0.8412011861801147
1654945867704381000,9.824380859375,-0.049333605915308,-0.4719648063182831,0.8657015562057495
1654945867724690200,9.844690185546876,-0.06797518581151962,-0.6420026421546936,0.894529402256012
1654945867745050400,9.86505029296875,-0.09999874979257584,-0.6281545758247375,0.9339430332183838
1654945867765373700,9.885373779296875,-0.13941237330436707,-0.5183024406433105,0.9611064791679382
1654945867785731800,9.90573193359375,-0.19806677103042603,-0.4127778112888336,0.9632369875907898
1654945867806069200,9.9260693359375,-0.25026318430900574,-0.24433782696723938,0.9184971451759338
1654945867826370300,9.946370361328125,-0.24706748127937317,-0.12070421874523163,0.8092442154884338
1654945867846603300,9.966603271484376,-0.22523020207881927,-0.12070421874523163,0.6573153734207153
1654945867866840800,9.9868408203125,-0.23907823860645294,-0.1692388951778412,0.5165714621543884
1654945867887196700,10.00719677734375,-0.299330472946167,-0.15958522260189056,0.37749195098876953
1654945867907528400,10.027528564453124,-0.33448317646980286,-0.10792142152786255,0.21970431506633759
1654945867927772400,10.0477724609375,-0.2780258059501648,-0.29074203968048096,0.12856030464172363
1654945867948117200,10.0681171875,-0.221501886844635,-0.5785546898841858,0.043807707726955414
1654945867968571600,10.088571533203124,-0.3334179222583771,-0.6105116605758667,-0.22642859816551208
1654945867988787000,10.108786865234375,-0.5348801612854004,-0.3914731442928314,-0.7141056060791016
1654945868009464800,10.12946484375,-0.5993933081626892,-0.1137802004814148,-1.2854700088500977
1654945868029526000,10.149526123046876,-0.6244263052940369,0.19800019264221191,-1.9213474988937378
1654945868049709600,10.16970947265625,-0.601523756980896,0.42189884185791016,-2.613149642944336
1654945868070034200,10.1900341796875,-0.6356778144836426,1.3839374780654907,-3.0401084423065186
1654945868090344400,10.210344482421876,-0.6297524571418762,1.9068336486816406,-3.143502712249756
1654945868110637800,10.230637939453125,-0.44426873326301575,0.3595161437988281,-2.495374917984009
1654945868130951700,10.25095166015625,-0.18475134670734406,-0.8354755640029907,-1.7326680421829224
1654945868151393300,10.271393310546875,0.1760963350534439,0.22576282918453217,-1.6473828554153442
1654945868171601400,10.291601318359374,0.3711671233177185,1.8396574258804321,-1.983197569847107
1654945868191885600,10.311885498046875,0.30352482199668884,2.8092191219329834,-2.2485737800598145
1654945868212183800,10.332183837890625,0.18035726249217987,2.810817003250122,-2.1345272064208984
1654945868232503300,10.35250341796875,0.2203700840473175,2.047511100769043,-1.8174207210540771
1654945868252832300,10.372832275390625,0.41970181465148926,1.291728138923645,-1.5738152265548706
1654945868273153500,10.393153564453126,0.6206313967704773,1.3162951469421387,-1.353178858757019
1654945868293460700,10.413460693359376,0.7682993412017822,1.5955859422683716,-1.220956802368164
1654945868313798700,10.433798583984375,0.9292160868644714,2.057697296142578,-1.1586406230926514
1654945868334125800,10.454125732421875,0.979881227016449,2.1114916801452637,-1.1575753688812256
1654945868354427100,10.47442724609375,0.9190963506698608,1.7501112222671509,-1.1409977674484253
1654945868374688000,10.49468798828125,0.9249551296234131,1.739991545677185,-0.9992551803588867
1654945868395058000,10.515057861328126,0.9660332202911377,2.118415594100952,-0.7636389136314392
1654945868415378700,10.535378662109375,0.8956612348556519,2.4845893383026123,-0.5424699187278748
1654945868435637800,10.5556376953125,0.7517216205596924,2.5112202167510986,-0.42256462574005127
1654945868455953400,10.575953369140626,0.6718291640281677,2.1343941688537598,-0.29566875100135803
1654945868476245000,10.596244873046874,0.6520557403564453,1.7224152088165283,-0.10752195864915848
1654945868496562700,10.616562744140625,0.6350120306015015,1.4404613971710205,0.14560404419898987
1654945868516916500,10.63691650390625,0.5993267297744751,1.1883339881896973,0.443602979183197
1654945868537210600,10.657210693359374,0.5902722477912903,0.9079779982566833,0.6269562244415283
1654945868557534000,10.677533935546874,0.568901002407074,0.9591757655143738,0.48141875863075256
1654945868577827600,10.69782763671875,0.5337483286857605,1.2246185541152954,0.19467133283615112
1654945868598121500,10.71812158203125,0.5406723618507385,1.3039783239364624,0.05073172226548195
1654945868618721500,10.738721435546875,0.49539992213249207,1.2459231615066528,-0.16457849740982056
1654945868638931500,10.758931396484375,0.46177852153778076,1.4857337474822998,-0.38947582244873047
1654945868659122700,10.779122802734374,0.48314976692199707,1.7181543111801147,-0.32609444856643677
1654945868679432000,10.799431884765625,0.47509393095970154,1.3818069696426392,-0.011051792651414871
1654945868699889000,10.819888916015625,0.36477574706077576,0.980480432510376,0.38548120856285095
1654945868720112600,10.840112548828126,0.24753352999687195,0.7726268172264099,0.7873403429985046
1654945868740485400,10.8604853515625,0.3610474169254303,0.050931453704833984,1.123687744140625
1654945868760800500,10.880800537109375,0.5449332594871521,-0.6840793490409851,1.271888256072998
1654945868780980200,10.900980224609375,0.3743628263473511,-1.2698243856430054,1.1684941053390503
1654945868801394200,10.921394287109376,0.251261830329895,-1.8625599145889282,1.2830731868743896
1654945868821629700,10.941629638671875,0.002862813649699092,-1.5912584066390991,1.6385947465896606
1654945868841935600,10.961935546875,-0.4837489426136017,0.364309698343277,1.3603692054748535
1654945868863208700,10.983208740234375,-0.30518925189971924,-0.20226112008094788,0.7415353655815125
1654945868882637300,11.00263720703125,0.0908111184835434,-0.5012587308883667,0.8188313245773315
1654945868902891000,11.02289111328125,0.3823520839214325,-0.135084867477417,0.8374729156494141
1654945868923153400,11.0431533203125,0.4228975176811218,-0.09886693954467773,0.6786200404167175
1654945868943490800,11.06349072265625,0.17929203808307648,-0.023168819025158882,0.5677692294120789
1654945868963804400,11.083804443359375,-0.015778765082359314,0.5066514611244202,0.37323102355003357
1654945868984309500,11.1043095703125,0.026364516466856003,0.5231625437736511,0.3151092529296875
1654945869004681700,11.124681640625,0.06418029218912125,0.2438717782497406,0.3044569194316864
1654945869024788500,11.14478857421875,-0.0386812724173069,0.31317850947380066,0.23781327903270721
1654945869045117400,11.165117431640626,-0.13887976109981537,0.507716715335846,0.21278029680252075
1654945869065438700,11.185438720703125,-0.12929265201091766,0.5668371319770813,0.2703694701194763
1654945869085842200,11.20584228515625,-0.06371425092220306,0.46344295144081116,0.41903603076934814
1654945869106188000,11.22618798828125,-0.005659050308167934,0.3504616618156433,0.6077154278755188
1654945869126351600,11.2463515625,0.022636201232671738,0.4187031686306,0.7426005601882935
1654945869146668300,11.266668212890625,0.0583215095102787,0.45172539353370667,0.8220270276069641
1654945869166995000,11.286994873046876,0.08548495173454285,0.29447034001350403,0.8582449555397034
1654945869187345700,11.307345703125,0.03595161437988281,0.19267402589321136,0.8364076614379883
1654945869207494700,11.32749462890625,-0.08348763734102249,0.2848832607269287,0.8044506907463074
1654945869227825400,11.347825439453125,-0.16551057994365692,0.30199354887008667,0.8044506907463074
1654945869248147700,11.368147705078124,-0.2017950862646103,0.20172850787639618,0.7724270820617676
1654945869268468000,11.388468017578125,-0.23801299929618835,0.1452711522579193,0.661043643951416
1654945869288773400,11.4087734375,-0.25985029339790344,0.09407339245080948,0.551790714263916
1654945869309149400,11.4291494140625,-0.24653486907482147,-0.06684337556362152,0.5139083862304688
1654945869329399600,11.449399658203125,-0.1916753649711609,-0.20332635939121246,0.49420154094696045
1654945869349706500,11.46970654296875,-0.1911427527666092,-0.10792142152786255,0.4473312795162201
1654945869370004000,11.49000390625,-0.3403419554233551,0.15911918878555298,0.27835869789123535
1654945869390364200,11.5103642578125,-0.4917382001876831,0.3067871034145355,0.048068638890981674
1654945869410713000,11.530713134765625,-0.4373447299003601,0.24600225687026978,-0.1256309151649475
1654945869430944300,11.5509443359375,-0.2220345139503479,0.08714937418699265,-0.2988644540309906
1654945869451277600,11.571277587890625,-0.0925421193242073,0.047735754400491714,-0.5392742156982422
1654945869471574000,11.591573974609375,-0.2684387266635895,0.31424373388290405,-1.0200271606445312
1654945869491878100,11.611878173828124,-0.5594470500946045,0.755516529083252,-1.664426565170288
1654945869512215300,11.63221533203125,-0.7102441191673279,0.840269148349762,-2.1345272064208984
1654945869532539600,11.65253955078125,-0.9863392114639282,1.0609720945358276,-2.585986375808716
1654945869552831700,11.672831787109375,-1.1047132015228271,1.2842715978622437,-2.8642117977142334
1654945869573166300,11.693166259765626,-0.9234904646873474,0.8040512204170227,-2.6771302223205566
1654945869593477000,11.71347705078125,-0.6750914454460144,0.09993217140436172,-2.137190341949463
1654945869613825300,11.7338251953125,-0.43148595094680786,0.12822742760181427,-1.7929203510284424
1654945869634103600,11.754103515625,-0.24760010838508606,1.089733362197876,-1.6931878328323364
1654945869654410500,11.774410400390625,-0.2225671261548996,1.6435214281082153,-1.7294723987579346
1654945869674768400,11.794768310546875,-0.19966460764408112,1.62434720993042,-1.6686875820159912
1654945869695083300,11.815083251953125,-0.07869409024715424,1.5262792110443115,-1.5296080112457275
1654945869715537000,11.835536865234374,0.06684337556362152,1.3109023571014404,-1.407505750656128
1654945869735716600,11.855716552734375,0.2198374718427658,1.0790810585021973,-1.2433933019638062
1654945869756028200,11.876028076171876,0.4340824484825134,1.2342056035995483,-1.0525168180465698
1654945869776287700,11.896287841796875,0.5934679508209229,1.4505810737609863,-0.9171656370162964
1654945869796780800,11.91678076171875,0.7437323927879333,1.4505810737609863,-0.8649026155471802
1654945869816943000,11.936943115234374,0.8828784227371216,1.3999159336090088,-0.9368724226951599
1654945869837221000,11.95722119140625,0.9238899350166321,1.4111675024032593,-1.083475112915039
1654945869857559000,11.97755908203125,0.9222920536994934,1.4676247835159302,-1.0935949087142944
1654945869878107000,11.99810693359375,0.8855414986610413,1.4841358661651611,-0.89692622423172
1654945869898439200,12.018439208984375,0.800788938999176,1.6435214281082153,-0.7567148804664612
1654945869918585900,12.0385859375,0.7330800294876099,1.8066352605819702,-0.7162360548973083
1654945869938839300,12.05883935546875,0.6771553158760071,1.802374243736267,-0.6256246566772461
1654945869959213000,12.079213134765626,0.6323489546775818,1.6323364973068237,-0.4518585205078125
1654945869979558000,12.099557861328124,0.5945332050323486,1.3780786991119385,-0.2360156923532486
1654945869999858400,12.1198583984375,0.5710314512252808,1.11050546169281,-0.06917356699705124
1654945870020122000,12.1401220703125,0.5262916684150696,0.9154346585273743,-0.01744319126009941
1654945870040448000,12.160447998046875,0.5076501369476318,0.8312146663665771,-0.030758604407310486
1654945870060769500,12.18076953125,0.5214981436729431,0.8392038941383362,-0.03235645219683647
1654945870081081600,12.20108154296875,0.5465311408042908,0.7918010354042053,-0.05266245827078819
1654945870101412400,12.221412353515625,0.552389919757843,0.7774204015731812,-0.116043820977211
1654945870121612300,12.2416123046875,0.5902722477912903,1.0689613819122314,-0.12136998772621155
1654945870141976800,12.261976806640625,0.6291532516479492,1.5630297660827637,-0.14167599380016327
1654945870162260000,12.282260009765626,0.6835467219352722,1.8013089895248413,-0.1256309151649475
1654945870182589700,12.302589599609375,0.7581796050071716,1.6893930435180664,0.08328790962696075
1654945870202867700,12.32286767578125,0.7943975329399109,1.5374641418457031,0.3721657991409302
1654945870223172400,12.34317236328125,0.8087781667709351,1.4761466979980469,0.551790714263916
1654945870243488000,12.363488037109375,0.7954627871513367,1.243260145187378,0.6700981259346008
1654945870263865900,12.383865966796876,0.754917323589325,0.7496577501296997,0.955247700214386
1654945870284104700,12.404104736328126,0.6483274698257446,0.4149748384952545,1.2660294771194458
1654945870304464000,12.4244638671875,0.5737611651420593,0.31371113657951355,1.1172963380813599
1654945870324745000,12.444744873046876,0.4927368462085724,0.05679023638367653,0.9030513167381287
1654945870345172700,12.4651728515625,0.4165061116218567,-0.7651036381721497,1.053848385810852
1654945870365415400,12.48541552734375,0.3274925649166107,-1.1009182929992676,1.418424367904663
1654945870385685000,12.50568505859375,0.11484543234109879,-0.5060522556304932,1.4760135412216187
1654945870405964300,12.52596435546875,0.09240896254777908,0.04294220730662346,1.1913965940475464
1654945870426340400,12.54634033203125,0.1452045738697052,0.1575213372707367,0.9952605366706848
1654945870446603300,12.566603271484375,0.05406057462096214,0.43468165397644043,0.7484593391418457
1654945870466984400,12.586984375,-0.0701056495308876,0.7949967384338379,0.4984624683856964
1654945870487240400,12.607240478515624,-0.041344355791807175,0.7448641657829285,0.47129902243614197
1654945870507650600,12.627650634765626,0.06737598776817322,0.38934266567230225,0.6018566489219666
1654945870527967500,12.647967529296874,0.05725627392530441,0.009853405877947807,0.6168364882469177
1654945870548259300,12.66825927734375,0.03861469775438309,-0.18042384088039398,0.4808861315250397
1654945870568557300,12.688557373046875,0.20006407797336578,-0.030092833563685417,0.3161744773387909
1654945870588841000,12.708841064453125,0.2842840552330017,0.010918638668954372,0.2597171366214752
1654945870609146000,12.72914599609375,0.09347419440746307,0.21777357161045074,0.2501300275325775
1654945870629520400,12.749520263671876,-0.05252930521965027,0.4064529836177826,0.2650432884693146
1654945870649811500,12.7698115234375,-0.07922670245170593,0.4820845127105713,0.33215296268463135
1654945870670141200,12.79014111328125,-0.12769481539726257,0.7688984870910645,0.3567199110984802
1654945870690464300,12.81046435546875,-0.13887976109981537,1.0124374628067017,0.34393709897994995
1654945870710692600,12.830692626953125,-0.07436657696962357,0.9900675415992737,0.33375081419944763
1654945870730974000,12.850973876953125,0.013515143655240536,0.7763551473617554,0.36470916867256165
1654945870751332400,12.871332275390625,0.05459319427609444,0.5802190899848938,0.41690558195114136
1654945870771690800,12.891690673828125,0.010852061212062836,0.44320350885391235,0.41797080636024475
1654945870791932200,12.91193212890625,-0.08508548885583878,0.34726595878601074,0.3513937294483185
1654945870812228900,12.932228759765625,-0.1474016159772873,0.3307548463344574,0.28102177381515503
1654945870832547300,12.95254736328125,-0.11278154700994492,0.27263307571411133,0.253858357667923
1654945870852865000,12.972864990234376,-0.039213892072439194,0.1777607649564743,0.273032546043396
1654945870873216000,12.993216064453126,0.00019973119196947664,0.09780170768499374,0.27676084637641907
1654945870893563400,13.0135634765625,-0.01364829856902361,0.018907885998487473,0.25652143359184265
1654945870913890600,13.033890625,-0.008854749612510204,-0.03648423030972481,0.2517278790473938
1654945870934188500,13.0541884765625,0.017310036346316338,-0.05033225938677788,0.3055221438407898
1654945870954528500,13.074528564453125,-0.017909230664372444,-0.0002663082559593022,0.38707906007766724
1654945870974770000,13.09477001953125,-0.13994498550891876,0.11810771375894547,0.423829585313797
1654945870995064300,13.115064208984375,-0.25026318430900574,0.2843506336212158,0.39666613936424255
1654945871015374000,13.1353740234375,-0.28068891167640686,0.3958006501197815,0.3780245780944824
1654945871035691500,13.15569140625,-0.2332194596529007,0.3094501793384552,0.5251598954200745
1654945871056005000,13.176005126953125,-0.21351264417171478,0.09513862431049347,0.6961963772773743
1654945871076310000,13.19631005859375,-0.28175413608551025,0.019973119720816612,0.7111762166023254
1654945871096642600,13.216642578125,-0.37875691056251526,0.08022536337375641,0.6077154278755188
1654945871116970800,13.236970703125,-0.41976839303970337,0.033887725323438644,0.3790898025035858
1654945871137331700,13.257331787109376,-0.36064794659614563,0.048800986260175705,0.07157034426927567
1654945871157617000,13.277616943359375,-0.2449370175600052,0.14101022481918335,-0.17949175834655762
1654945871178660000,13.29866015625,-0.14846685528755188,0.2880789637565613,-0.40552088618278503
1654945871198247200,13.3182470703125,-0.1681736707687378,0.5529890656471252,-0.6213637590408325
1654945871218578700,13.33857861328125,-0.41177913546562195,0.779018223285675,-0.827086865901947
1654945871238850000,13.35885009765625,-0.6244263052940369,0.6414700150489807,-0.9699612259864807
1654945871259137300,13.37913720703125,-0.7289522886276245,0.26038289070129395,-1.1266170740127563
1654945871279462400,13.39946240234375,-0.7726268172264099,0.15911918878555298,-1.407505750656128
1654945871299751400,13.41975146484375,-0.7774204015731812,0.38881006836891174,-1.778473138809204
1654945871320111600,13.440111572265625,-0.7609092593193054,0.7891379594802856,-2.17134428024292
1654945871340388900,13.460388916015624,-0.6868090033531189,0.8781514763832092,-2.417546272277832
1654945871360697900,13.48069775390625,-0.5290213227272034,0.5753589868545532,-2.3157501220703125
1654945871381785600,13.50178564453125,-0.44480136036872864,0.08235582709312439,-1.9917194843292236
1654945871401314600,13.521314453125,-0.38035476207733154,-0.132954403758049,-1.6708179712295532
1654945871421637000,13.54163720703125,-0.3270265460014343,0.1132475882768631,-1.4672253131866455
1654945871441936400,13.561936279296875,-0.30199354887008667,0.5093145370483398,-1.386201024055481
1654945871462257700,13.582257568359376,-0.200197234749794,0.8866733312606812,-1.3515809774398804
1654945871482572500,13.602572509765626,0.017310036346316338,1.1467899084091187,-1.2737523317337036
1654945871503669800,13.623669677734375,0.2640446424484253,1.2347382307052612,-1.120758295059204
1654945871523288600,13.64328857421875,0.36850404739379883,1.1238207817077637,-0.9528509378433228
1654945871543519000,13.66351904296875,0.3807542324066162,1.180344820022583,-0.8329456448554993
1654945871563797200,13.68379736328125,0.46390897035598755,1.296521782875061,-0.7892711162567139
1654945871584155400,13.7041552734375,0.5582486987113953,1.172888159751892,-0.8569133877754211
1654945871604463600,13.724463623046875,0.6083812117576599,1.104114055633545,-0.9720917344093323
1654945871624768300,13.744768310546876,0.6632407307624817,1.1792795658111572,-0.9981899261474609
1654945871645070000,13.765070068359375,0.6862097978591919,1.1350723505020142,-0.9912658929824829
1654945871665398800,13.785398681640626,0.6643725037574768,1.058841586112976,-1.0429296493530273
1654945871685688800,13.805688720703126,0.6105116605758667,1.010839581489563,-1.0482559204101562
1654945871706030600,13.826030517578126,0.5614444017410278,0.9452611804008484,-0.9310136437416077
1654945871726311200,13.846311279296875,0.49806302785873413,0.7581796050071716,-0.7615084648132324
1654945871746636300,13.86663623046875,0.4473978579044342,0.546065092086792,-0.5840139985084534
1654945871766971600,13.8869716796875,0.406919002532959,0.46450817584991455,-0.4204341471195221
1654945871787268400,13.907268310546876,0.3061879277229309,0.5039883852005005,-0.25146156549453735
1654945871807601200,13.92760107421875,0.20059669017791748,0.5742937326431274,-0.04999937489628792
1654945871827910700,13.94791064453125,0.21877223253250122,0.5290213227272034,0.18295377492904663
1654945871848217300,13.96821728515625,0.28854498267173767,0.39952895045280457,0.3902747631072998
1654945871868542500,13.98854248046875,0.3621126413345337,0.2662416696548462,0.5427362322807312
1654945871888820000,14.008820068359375,0.4665720760822296,0.12822742760181427,0.6360107064247131
1654945871909169700,14.029169677734375,0.5860112905502319,-0.025831900537014008,0.6514565944671631
1654945871929464000,14.049464111328126,0.6936664581298828,-0.1558569073677063,0.6445325613021851
1654945871949760500,14.069760498046875,0.7437323927879333,-0.1671084314584732,0.6658372282981873
1654945871970077400,14.090077392578126,0.7186993956565857,-0.021038351580500603,0.7127740383148193
1654945871990443300,14.110443359375,0.5902722477912903,0.18202169239521027,0.7036529779434204
1654945872010808600,14.13080859375,0.4356802999973297,0.3947354257106781,0.6317497491836548
1654945872031024000,14.151024169921875,0.3397427499294281,0.5162385702133179,0.5736280083656311
1654945872051327000,14.171326904296874,0.2725664973258972,0.42243146896362305,0.6007914543151855
1654945872071647700,14.191647705078125,0.18302035331726074,0.4160400629043579,0.7047182321548462
1654945872091955700,14.211955810546876,0.1132475882768631,0.600458562374115,0.7804163694381714
1654945872112301300,14.23230126953125,0.20865251123905182,0.38667958974838257,0.7852098941802979
1654945872132606500,14.2526064453125,0.3487972319126129,-0.132954403758049,0.5901390910148621
1654945872152898800,14.27289892578125,0.4058537781238556,-0.5833482146263123,0.5149735808372498
1654945872173214000,14.2932138671875,0.402658075094223,-1.0262854099273682,0.7745575904846191
1654945872193542400,14.31354248046875,0.24966399371623993,-1.2336064577102661,0.7820141911506653
1654945872213859800,14.33385986328125,0.16065046191215515,-1.3588378429412842,0.6066502332687378
1654945872234968300,14.35496826171875,0.21877223253250122,-1.5571709871292114,0.7020551562309265
1654945872255459000,14.375458984375,0.2651098668575287,-1.561431884765625,0.962171733379364
1654945872275770400,14.395770263671874,0.2656424939632416,-1.3844701051712036,1.1529816389083862
1654945872295102000,14.41510205078125,0.359449565410614,-1.4089703559875488,1.1449923515319824
1654945872316807200,14.43680712890625,0.4596480429172516,-1.7575678825378418,1.1545794010162354
1654945872337116000,14.457115966796875,0.467637300491333,-2.204233407974243,1.0784152746200562
1654945872357374200,14.477374267578124,0.3296230435371399,-2.233527421951294,0.8193639516830444
1654945872379263000,14.499262939453125,0.1984662264585495,-1.499049186706543,0.48354920744895935
1654945872417980400,14.53798046875,0.262446790933609,-1.1003856658935547,0.11524489521980286
1654945872437330000,14.557329833984374,0.24859875440597534,-1.2687591314315796,0.12589722871780396
1654945872457684200,14.577684326171875,0.20112931728363037,-1.2832063436508179,0.1099187359213829
1654945872481268200,14.601268310546875,0.2198374718427658,-1.3738176822662354,0.1099187359213829
1654945872519377000,14.639376953125,0.2326202541589737,-1.770883321762085,0.21650861203670502
1654945872538902500,14.658902587890625,0.19207483530044556,-1.8391247987747192,0.2858153283596039
1654945872559251200,14.679251220703126,0.19580315053462982,-1.9062345027923584,0.33055511116981506
1654945872579585000,14.6995849609375,0.2091851383447647,-1.8764079809188843,0.3370130956172943
1654945872599834400,14.71983447265625,0.2097177505493164,-1.7740789651870728,0.3071199953556061
1654945872620161800,14.740161865234375,0.1771615743637085,-1.6733479499816895,0.24640171229839325
1654945872640475100,14.76047509765625,0.13082392513751984,-1.5246148109436035,0.19147562980651855
1654945872660803000,14.780802978515625,0.08868064731359482,-1.3002500534057617,0.11311443150043488
1654945872681095400,14.801095458984374,0.04234301298856735,-1.1009182929992676,0.04220985993742943
1654945872701414100,14.8214140625,-0.010985215194523335,-0.9777507781982422,0.02516612969338894
1654945872721726500,14.8417265625,-0.048800986260175705,-0.9793485999107361,0.08435314148664474
1654945872742151000,14.86215087890625,-0.07543181627988815,-1.0998530387878418,0.13654956221580505
1654945872762344200,14.88234423828125,-0.09147688746452332,-1.2442587614059448,0.1866820901632309
1654945872782670000,14.902670166015625,-0.10266183316707611,-1.3881983757019043,0.22236739099025726
1654945872802963700,14.922963623046876,-0.11011846363544464,-1.4697552919387817,0.23408496379852295
1654945872823320600,14.943320556640625,-0.10212921351194382,-1.4590363502502441,0.2527931034564972
1654945872843823900,14.963823974609374,-0.049866221845149994,-1.4233510494232178,0.26717376708984375
1654945872863918800,14.9839189453125,0.005525896325707436,-1.375415563583374,0.23408496379852295
1654945872884266000,15.004265869140625,-0.002463351469486952,-1.3039783239364624,0.17762760818004608
1654945872904547300,15.02454736328125,-0.049866221845149994,-1.180810809135437,0.10512518137693405
1654945872925001700,15.045001708984374,-0.03015941008925438,-1.0598403215408325,-0.03561872988939285
1654945872945165000,15.0651650390625,0.023168819025158882,-0.9111737012863159,-0.2135792225599289
1654945872965546800,15.085546630859374,0.011384678073227406,-0.7422010898590088,-0.23814615607261658
1654945872985864700,15.10586474609375,-0.11810771375894547,-0.6366764903068542,-0.14753477275371552
1654945873006099700,15.126099609375,-0.27323228120803833,-0.755516529083252,-0.12403307110071182
1654945873026510600,15.146510498046876,-0.3643762767314911,-1.0465248823165894,-0.13155627250671387
1654945873046752300,15.166752197265625,-0.4171053171157837,-1.3231525421142578,-0.19014409184455872
1654945873067086800,15.1870869140625,-0.4250945448875427,-1.545919418334961,-0.26477697491645813
1654945873087407000,15.207406982421874,-0.42030099034309387,-1.7831335067749023,-0.34846433997154236
1654945873107685000,15.22768505859375,-0.45658549666404724,-1.9920523166656494,-0.5131760239601135
1654945873127950000,15.2479501953125,-0.5332822799682617,-1.996313214302063,-0.7828797101974487
1654945873148292000,15.2682919921875,-0.6601781845092773,-1.7730138301849365,-1.1436607837677002
1654945873168566500,15.28856640625,-0.8248898386955261,-1.515027642250061,-1.4885300397872925
1654945873189440500,15.3094404296875,-0.9575778841972351,-0.9894683361053467,-1.6910574436187744
1654945873209231600,15.329231689453126,-1.0551133155822754,-0.34666678309440613,-1.6766767501831055
1654945873229513200,15.34951318359375,-1.0625699758529663,-0.23954427242279053,-1.462431788444519
1654945873253525500,15.373525390625,-0.8850755095481873,-0.5913375020027161,-1.230543851852417
1654945873290519000,15.41051904296875,-0.4629769027233124,-0.5481955409049988,-0.5440677404403687
1654945873310791400,15.43079150390625,-0.3659741282463074,-0.10632357001304626,-0.4832828938961029
1654945873331057700,15.4510576171875,-0.07436657696962357,-0.42076703906059265,-0.5456656217575073
1654945873351392000,15.47139208984375,0.07856093347072601,-0.04287562891840935,-0.5051867365837097
1654945873371823900,15.491823974609375,0.10572437942028046,-0.09726908802986145,-0.3202356696128845
1654945873392138800,15.512138671875,0.03648423030972481,-0.7005904316902161,-0.19760072231292725
1654945873412382500,15.532382568359376,-0.04187697172164917,-1.0017850399017334,-0.05958647280931473
1654945873432698600,15.55269873046875,-0.07383396476507187,-0.9788159728050232,0.1216362938284874
1654945873452972300,15.57297216796875,-0.10106398165225983,-0.9058475494384766,0.17922545969486237
1654945873473318100,15.593318115234375,-0.13781452178955078,-0.7608426809310913,0.1306907832622528
1654945873493657000,15.613656982421874,-0.1474016159772873,-0.6292198300361633,0.11364705115556717
1654945873513924900,15.6339248046875,-0.11864032596349716,-0.5567173957824707,0.10672303289175034
1654945873534241800,15.65424169921875,-0.033887725323438644,-0.5188350677490234,0.07636389136314392
1654945873557452000,15.6774521484375,0.07856093347072601,-0.4703669548034668,0.040612008422613144
1654945873595174000,15.715173828125,0.1675744652748108,-0.3274925649166107,-0.04946675896644592
1654945873615476000,15.73547607421875,0.13987840712070465,-0.18361954391002655,-0.04360797628760338
1654945873635789300,15.755789306640626,0.09613727778196335,0.0018641578499227762,0.009720250964164734
1654945873656101600,15.7761015625,0.06844121962785721,0.08714937418699265,0.0560578890144825
1654945873676402200,15.796402099609375,0.07430000603199005,0.13195574283599854,0.07529865950345993
1654945873697670000,15.817669921875,0.12709560990333557,0.1788259893655777,0.09074454009532928
1654945873717104000,15.837104248046876,0.1675744652748108,0.2571871876716614,0.09447285532951355
1654945873740622000,15.8606220703125,0.16118307411670685,0.4176379144191742,0.09021192044019699
1654945873777970000,15.897969970703125,0.21344606578350067,0.5380758047103882,0.1413431018590927
1654945873798323200,15.9183232421875,0.23901166021823883,0.47622573375701904,0.18348638713359833
1654945873818655500,15.938655517578125,0.2645772397518158,0.4176379144191742,0.22290000319480896
1654945873838953700,15.95895361328125,0.2966008186340332,0.3387441039085388,0.23142187297344208
1654945873859282400,15.979282470703126,0.3184380829334259,0.26890477538108826,0.2751629948616028
1654945873879548700,15.999548583984375,0.34613415598869324,0.2230997383594513,0.3886769115924835
1654945873899908600,16.01990869140625,0.3914731442928314,0.1676410436630249,0.5347470045089722
1654945873920259800,16.040259765625,0.3850151598453522,0.18308693170547485,0.6013240218162537
1654945873940543700,16.060543701171873,0.3690366744995117,0.05359453707933426,0.5858781337738037
1654945873960824800,16.080824951171873,0.37383022904396057,-0.14307411015033722,0.5640408992767334
1654945873981142300,16.101142333984374,0.3796890079975128,-0.17669552564620972,0.5549864172935486
1654945874001561900,16.121561767578125,0.3530581593513489,-0.20652204751968384,0.529420793056488
1654945874021765000,16.14176513671875,0.305655300617218,-0.14733503758907318,0.6002588272094727
1654945874042064000,16.16206396484375,0.2635120153427124,0.03548557683825493,0.7564486265182495
1654945874062389000,16.182388916015626,0.2619141638278961,0.19320663809776306,0.8273531794548035
1654945874082778600,16.202778564453126,0.33548182249069214,0.2843506336212158,0.822559654712677
1654945874103136000,16.223135986328124,0.4569849669933319,0.0061250897124409676,0.768166184425354
1654945874123378700,16.243378662109375,0.4473978579044342,-0.21930484473705292,0.70744788646698
1654945874143694000,16.263694091796875,0.3285578191280365,0.008788172155618668,0.7079805135726929
1654945874164015000,16.28401513671875,0.25925108790397644,0.4581167697906494,0.7521876692771912
1654945874184452600,16.30445263671875,0.2635120153427124,0.2555893361568451,0.7750901579856873
1654945874204577500,16.32457763671875,0.2933385372161865,0.005592473316937685,0.7420679330825806
1654945874224876500,16.34487646484375,0.29447034001350403,0.2342846840620041,0.6743590831756592
1654945874245270800,16.365270751953126,0.2848166823387146,0.5130428671836853,0.5880086421966553
1654945874265493500,16.385493408203125,0.24593567848205566,0.608447790145874,0.4126446545124054
1654945874286024400,16.4060244140625,0.18248772621154785,0.4917382001876831,0.1552577167749405
1654945874306126000,16.4261259765625,0.1883465200662613,0.3504616618156433,-0.01957365684211254
1654945874326449200,16.44644921875,0.22409839928150177,0.05039883777499199,-0.09367392957210541
1654945874346818600,16.466818603515627,0.20439158380031586,-0.15851998329162598,-0.13049104809761047
1654945874367224000,16.48722412109375,0.14786766469478607,-0.18575000762939453,-0.11657644063234329
1654945874387382000,16.507382080078123,0.09453943371772766,-0.09407339245080948,-0.03934704512357712
1654945874407789800,16.527789794921876,0.06631075590848923,-0.03275591507554054,0.07050511240959167
1654945874428057900,16.548057861328125,0.05139749497175217,-0.019973119720816612,0.17709499597549438
1654945874448299500,16.568299560546876,0.05033225938677788,0.022170161828398705,0.2740977704524994
1654945874468742700,16.58874267578125,0.0583215095102787,0.031757257878780365,0.3689700961112976
1654945874488937700,16.608937744140626,0.05193011090159416,-0.00452724052593112,0.43188542127609253
1654945874509534200,16.6295341796875,0.03275591507554054,-0.04021254554390907,0.40678587555885315
1654945874529532200,16.6495322265625,0.04234301298856735,-0.09939955919981003,0.2383458912372589
1654945874549859600,16.669859619140624,0.08282186836004257,-0.16011783480644226,0.03901416063308716
1654945874570134300,16.69013427734375,0.07802832126617432,-0.1356174796819687,-0.06597787141799927
1654945874593793300,16.713793212890625,0.05193011090159416,-0.11164973676204681,-0.06597787141799927
1654945874631157500,16.751157470703124,0.025831900537014008,-0.16977150738239288,0.013448567129671574
1654945874651450600,16.77145068359375,0.008721595630049706,-0.11218235641717911,0.06943988054990768
1654945874671754200,16.791754150390624,-0.01045259926468134,-0.07003907114267349,0.12856030464172363
1654945874692082000,16.81208203125,-0.017909230664372444,-0.06790860742330551,0.16804051399230957
1654945874712355800,16.83235595703125,-0.009387366473674774,-0.12709560990333557,0.19094301760196686
1654945874732693000,16.85269287109375,0.007656362373381853,-0.210782989859581,0.20159535109996796
1654945874753040100,16.8730400390625,0.03914731368422508,-0.2875463366508484,0.21224768459796906
1654945874773313800,16.893313720703127,0.0689738392829895,-0.3595161437988281,0.21544337272644043
1654945874793634300,16.91363427734375,0.08228924870491028,-0.38774481415748596,0.18188853561878204
1654945874813988000,16.933988037109376,0.07323476672172546,-0.35791829228401184,0.11151657998561859
1654945874834242800,16.954242919921874,0.04660394415259361,-0.2662416696548462,0.04007939249277115
1654945874854548700,16.974548828125,0.023701434955000877,-0.13881318271160126,-0.0009320789249613881
1654945874874980600,16.994980712890627,0.016244804486632347,-0.022636201232671738,-0.015845341607928276
1654945874896166700,17.016166748046874,0.0071237459778785706,0.048800986260175705,-0.014247491955757141
1654945874916530200,17.0365302734375,-0.00991998240351677,0.08395367860794067,0.0001331541279796511
1654945874936782000,17.056781982421874,-0.02696371078491211,0.08608414232730865,0.013981183059513569
1654945874956132900,17.0761328125,-0.02589847706258297,0.06105116754770279,0.02303566411137581
1654945874977400000,17.097400146484375,-0.007789516355842352,0.022170161828398705,0.027829213067889214
1654945874997674000,17.117674072265626,0.0119172940030694,-0.03382114693522453,0.025698747485876083
1654945875018019800,17.138019775390624,0.022103585302829742,-0.07276873290538788,0.026763979345560074
1654945875038333200,17.158333251953124,0.022103585302829742,-0.08395367860794067,0.027829213067889214
1654945875060993300,17.1809931640625,0.023701434955000877,-0.0807579755783081,0.020372580736875534
1654945875099052000,17.219052001953123,0.01564561016857624,-0.04926702752709389,0.01664426550269127
1654945875118637800,17.238637939453124,0.0023301972541958094,-0.021570969372987747,0.011850717477500439
1654945875138973700,17.2589736328125,-0.00991998240351677,0.019440501928329468,-0.0009320789249613881
1654945875159296000,17.2792958984375,-0.01311568170785904,0.03548557683825493,-0.017975807189941406
1654945875179569200,17.299569091796876,-0.008854749612510204,0.028561560437083244,-0.02809552103281021
1654945875199905000,17.319905029296876,-0.0029959678649902344,-0.013049104250967503,-0.03235645219683647
1654945875220166100,17.340166259765624,0.007656362373381853,-0.07596442848443985,-0.006258244160562754
1654945875240523800,17.360523681640625,0.016777420416474342,-0.10898665338754654,0.03848154470324516
1654945875260853200,17.380853271484376,0.016777420416474342,-0.11218235641717911,0.06517894566059113
1654945875281145900,17.401145751953123,0.011384678073227406,-0.09833431988954544,0.06943988054990768
1654945875301457000,17.421456787109374,0.01244991086423397,-0.0807579755783081,0.06251586228609085
1654945875321794600,17.441794677734375,0.019973119720816612,-0.03861469775438309,0.047003407031297684
1654945875342103600,17.462103515625,0.018375270068645477,0.040279123932123184,0.02410089783370495
1654945875362410500,17.482410400390624,0.00019973119196947664,0.12023817747831345,-0.007323476951569319
1654945875382785000,17.502784912109377,-0.01524614728987217,0.16444534063339233,-0.03129122033715248
1654945875403080700,17.523080810546876,-0.029626794159412384,0.20172850787639618,-0.03342168778181076
1654945875423428600,17.5434287109375,-0.034952957183122635,0.22682805359363556,-0.023301972076296806
1654945875443833000,17.5638330078125,-0.027496326714754105,0.21351264417171478,-0.012649642303586006
1654945875463912700,17.58391259765625,-0.014180914498865604,0.17989122867584229,-0.0009320789249613881
1654945875484220200,17.60422021484375,-0.0029959678649902344,0.12929265201091766,0.004926702938973904
1654945875504615700,17.62461572265625,0.005525896325707436,0.04826837033033371,0.005991935729980469
1654945875524878000,17.644878173828126,0.014047760516405106,-0.010918638668954372,0.009187635034322739
1654945875545296600,17.665296630859373,0.020505735650658607,-0.013049104250967503,0.010785484686493874
1654945875565537300,17.685537353515624,0.024766668677330017,0.002929390873759985,0.006524552125483751
1654945875585833500,17.70583349609375,0.025299284607172012,0.03015941008925438,-0.005725627299398184
1654945875606125800,17.726125732421874,0.019973119720816612,0.07969274371862411,-0.009986559860408306
1654945875626609000,17.74660888671875,0.0119172940030694,0.12662957608699799,-0.012117025442421436
1654945875646849000,17.76684912109375,-0.002463351469486952,0.15432563424110413,-0.019041040912270546
1654945875667083500,17.78708349609375,-0.0173766128718853,0.16231487691402435,-0.028628136962652206
1654945875687376000,17.8073759765625,-0.021104929968714714,0.15485824644565582,-0.03448691964149475
1654945875707716400,17.82771630859375,-0.01364829856902361,0.1346188187599182,-0.03561872988939285
1654945875727966200,17.84796630859375,-0.005659050308167934,0.0914103090763092,-0.027562905102968216
1654945875748369400,17.868369384765625,-0.004061201121658087,0.028561560437083244,-0.014780107885599136
1654945875768697900,17.88869775390625,-0.0008655018173158169,-0.04021254554390907,-0.0030625448562204838
1654945875789002200,17.909002197265625,0.0119172940030694,-0.0807579755783081,0.004394086077809334
1654945875809283300,17.929283447265625,0.026364516466856003,-0.07223611325025558,0.008655018173158169
1654945875829738200,17.94973828125,0.03435376659035683,-0.0370168462395668,0.0038614696823060513
1654945875849861600,17.969861572265625,0.031158065423369408,0.00133154122158885,-0.005725627299398184
1654945875873462500,17.993462646484375,0.018907885998487473,0.03974650800228119,-0.016910573467612267
1654945875910813200,18.030813232421874,0.003928046673536301,0.07170350104570389,-0.05745600536465645
1654945875931117000,18.051116943359375,-0.007789516355842352,0.06637733429670334,-0.07023879885673523
1654945875951449000,18.071448974609375,-0.01045259926468134,0.049333605915308,-0.06917356699705124
1654945875971754000,18.09175390625,0.00019973119196947664,0.028561560437083244,-0.06171693652868271
1654945875992125200,18.112125244140625,0.00978682842105627,0.014114337973296642,-0.04999937489628792
1654945876012408300,18.132408203125,0.01244991086423397,0.00452724052593112,-0.030758604407310486
1654945876032740000,18.152739990234377,0.011384678073227406,-0.0050598569214344025,-0.013182258233428001
1654945876053047000,18.173047119140627,0.008721595630049706,0.002929390873759985,-0.004127778112888336
1654945876073313500,18.1933134765625,0.00978682842105627,0.02696371078491211,0.008122402243316174
1654945876093661700,18.21366162109375,0.0012649642303586006,0.06211639940738678,0.014513799920678139
1654945876113964500,18.233964599609376,-0.005126433912664652,0.09034507721662521,0.008122402243316174
1654945876134292500,18.25429248046875,-0.012050448916852474,0.1149120107293129,-0.0030625448562204838
1654945876154584600,18.27458447265625,-0.01631138101220131,0.1356840580701828,-0.023301972076296806
1654945876174896000,18.294896240234376,-0.01631138101220131,0.13408620655536652,-0.05319507420063019
1654945876195248400,18.315248291015624,-0.01524614728987217,0.10579095780849457,-0.0729018822312355
1654945876215762000,18.335761962890626,-0.01364829856902361,0.059453319758176804,-0.06384740769863129
1654945876236589300,18.35658935546875,-0.01311568170785904,0.017842652276158333,-0.04840152710676193
1654945876257109200,18.377109130859374,-0.006191667169332504,-0.0375494658946991,-0.037749193608760834
1654945876276469500,18.396469482421875,0.006591129116714001,-0.09833431988954544,-0.02489982172846794
1654945876296789200,18.416789306640624,0.01031944528222084,-0.13934579491615295,-0.004660394508391619
1654945876317081300,18.437081298828126,0.010852061212062836,-0.1900109350681305,0.03049229457974434
1654945876337430500,18.457430419921874,0.013515143655240536,-0.20332635939121246,0.07423342764377594
1654945876361485800,18.48148583984375,0.016777420416474342,-0.18255430459976196,0.08595099300146103
1654945876381566000,18.50156591796875,0.029560215771198273,-0.1793586164712906,0.07263557612895966
1654945876401869600,18.52186962890625,0.04074516147375107,-0.1878804713487625,0.05825493112206459
1654945876438948400,18.5589482421875,0.03435376659035683,-0.22889193892478943,-0.016910573467612267
1654945876459298000,18.579298095703123,0.021570969372987747,-0.24007689952850342,-0.04360797628760338
1654945876479610000,18.599610107421874,0.04127778112888336,-0.24966399371623993,-0.06651048362255096
1654945876499935200,18.619935302734376,0.05565842613577843,-0.2214353084564209,-0.04999937489628792
1654945876520246800,18.640246826171875,0.05033225938677788,-0.17456506192684174,-0.04041227698326111
1654945876540533000,18.660532958984376,0.03222329914569855,-0.12816084921360016,-0.021171506494283676
1654945876560844000,18.680843994140623,0.018907885998487473,-0.07489919662475586,0.0033288532868027687
1654945876581196300,18.7011962890625,0.026897134259343147,0.022170161828398705,-0.00359516148455441
1654945876601468200,18.72146826171875,0.025831900537014008,0.046670522540807724,0.009187635034322739
1654945876621821700,18.74182177734375,0.00978682842105627,0.05146406963467598,0.008122402243316174
1654945876642098400,18.762098388671873,0.00019973119196947664,0.03974650800228119,0.000665770610794425
1654945876662436600,18.7824365234375,0.004993279930204153,-0.008255556225776672,-0.009986559860408306
1654945876682758700,18.802758544921875,0.0092542115598917,-0.013581721112132072,-0.04254274442791939
1654945876703001900,18.823001953125,0.002862813649699092,-0.06258244067430496,-0.031823836266994476
1654945876723326500,18.843326416015625,0.003928046673536301,-0.07809489965438843,-0.011584409512579441
1654945876743636500,18.863636474609375,0.021570969372987747,-0.06524552404880524,-0.013182258233428001
1654945876764001300,18.884001220703126,0.022636201232671738,-0.06151720881462097,0.004926702938973904
1654945876784284400,18.904284423828123,0.001797580742277205,0.016777420416474342,0.006524552125483751
1654945876804671000,18.9246708984375,-0.011517832055687904,0.018375270068645477,0.015579032711684704
1654945876824953000,18.944953125,-0.0173766128718853,0.03442034125328064,0.006524552125483751
1654945876845265000,18.965264892578126,-0.02909417636692524,0.06690994650125504,0.019307348877191544
1654945876865776400,18.9857763671875,-0.004061201121658087,0.07543181627988815,-0.0025299284607172012
1654945876885876000,19.0058759765625,0.0012649642303586006,0.07543181627988815,-0.020106272771954536
1654945876906398000,19.02639794921875,-0.008854749612510204,0.10685618966817856,-0.028628136962652206
1654945876926492700,19.04649267578125,-0.010985215194523335,0.006657706573605537,-0.03881442919373512
1654945876946886100,19.06688623046875,-0.005126433912664652,0.02589847706258297,-0.025432437658309937
1654945876967105300,19.087105224609374,0.007656362373381853,0.102595254778862,-0.019041040912270546
1654945876987498200,19.107498291015624,0.016777420416474342,0.028561560437083244,0.008655018173158169
1654945877007789300,19.127789306640626,-0.004593817517161369,0.03122464381158352,0.01983996480703354
1654945877028267300,19.148267333984375,-0.01258306484669447,0.018375270068645477,0.018242115154862404
1654945877048614400,19.168614501953126,0.013515143655240536,0.026431094855070114,0.000665770610794425
1654945877068702200,19.1887021484375,0.0092542115598917,-0.029560215771198273,0.0027962366584688425
1654945877089054500,19.209054443359374,0.0023301972541958094,0.04187697172164917,-0.007323476951569319
1654945877109280800,19.22928076171875,0.014047760516405106,0.06850779801607132,-0.02596505545079708
1654945877129650400,19.249650390625,0.008188978768885136,0.07223611325025558,-0.03508611395955086
1654945877149870000,19.2698701171875,0.006591129116714001,0.07809489965438843,-0.04307536035776138
1654945877171131000,19.291130859375,0.013515143655240536,0.05892070010304451,-0.04307536035776138
1654945877193878000,19.3138779296875,0.024234050884842873,0.034952957183122635,-0.033954303711652756
1654945877231216000,19.351216064453126,0.0071237459778785706,0.02802894450724125,-0.006258244160562754
1654945877251571500,19.371571533203124,0.018907885998487473,0.014114337973296642,-0.0014646954368799925
1654945877271843600,19.391843505859374,0.03488638252019882,-0.0023967742454260588,0.010252867825329304
1654945877292192000,19.41219189453125,0.022103585302829742,-0.0007989247678779066,0.014513799920678139
1654945877312441600,19.432441650390626,0.006058512721210718,-0.022636201232671738,0.0011983871227130294
1654945877332758300,19.45275830078125,0.0007323477184399962,-0.04287562891840935,-0.011584409512579441
1654945877353148200,19.473148193359375,-0.015778765082359314,-0.009853405877947807,-0.011584409512579441
1654945877373366000,19.493365966796876,-0.01311568170785904,0.060518551617860794,-0.01957365684211254
1654945877393724400,19.513724365234374,-0.0008655018173158169,0.07702966034412384,-0.02916075475513935
1654945877413979400,19.5339794921875,0.014047760516405106,0.09460600465536118,-0.03448691964149475
1654945877434324500,19.554324462890627,0.04500609636306763,0.0386812724173069,-0.037749193608760834
1654945877454652000,19.57465185546875,0.04926702752709389,-0.04074516147375107,-0.0185084231197834
1654945877474954000,19.5949541015625,0.0482017956674099,-0.09620385617017746,-0.006258244160562754
1654945877495259100,19.615259033203124,0.0375494658946991,-0.11750851571559906,-0.001997311832383275
1654945877515534800,19.635534912109375,0.03275591507554054,-0.10153002291917801,0.0038614696823060513
1654945877536611800,19.65661181640625,0.03967992961406708,-0.06045197322964668,0.01770949922502041
1654945877556178000,19.676177978515625,0.03861469775438309,-0.0050598569214344025,0.026763979345560074
1654945877576500200,19.696500244140626,0.017842652276158333,0.019973119720816612,0.028894444927573204
1654945877596827000,19.716826904296877,-0.00991998240351677,0.03974650800228119,0.011318100616335869
1654945877620361000,19.74036083984375,-0.02270277962088585,0.06211639940738678,-0.009453942999243736
1654945877658518800,19.778518798828124,0.0119172940030694,0.07596442848443985,-0.011584409512579441
1654945877678851600,19.7988515625,0.01031944528222084,-0.0077229393646121025,-0.008921326138079166
1654945877699165000,19.8191650390625,0.003928046673536301,-0.022636201232671738,0.010785484686493874
1654945877718666500,19.83866650390625,0.01244991086423397,0.047735754400491714,0.009187635034322739
1654945877739033600,19.85903369140625,0.026897134259343147,-0.009320789016783237,0.010785484686493874
1654945877759281700,19.87928173828125,0.019973119720816612,-0.05193011090159416,0.01770949922502041
1654945877779641000,19.89964111328125,0.003928046673536301,-0.04873441159725189,0.013448567129671574
1654945877799998700,19.919998779296876,0.008721595630049706,-0.05459319427609444,0.000665770610794425
1654945877820249300,19.940249267578125,0.014047760516405106,-0.027429750189185143,-0.007856093347072601
1654945877840600600,19.9606005859375,0.0007323477184399962,0.0077229393646121025,-0.008388710208237171
1654945877860893000,19.980892822265623,-0.0013981183292344213,0.016777420416474342,-0.0185084231197834
1654945877881258500,20.001258544921875,-0.00991998240351677,-0.013049104250967503,-0.009986559860408306
1654945877901538600,20.02153857421875,0.006058512721210718,0.002929390873759985,-0.007856093347072601
1654945877921919700,20.041919677734374,0.03808208182454109,-0.002929390873759985,-0.012117025442421436
1654945877942279700,20.06227978515625,0.03808208182454109,0.00133154122158885,-0.004127778112888336
1654945877962452000,20.082451904296875,0.04181039705872536,-0.00399462366476655,-0.005725627299398184
1654945877982813400,20.1028134765625,0.030625449493527412,-0.020505735650658607,0.0001331541279796511
1654945878003085000,20.1230849609375,0.006058512721210718,-0.008788172155618668,0.015046416781842709
1654945878023420700,20.143420654296875,-0.006191667169332504,0.03761604055762291,0.025698747485876083
1654945878043730700,20.163730712890626,-0.0013981183292344213,0.06105116754770279,0.024633513763546944
1654945878064093200,20.18409326171875,0.00019973119196947664,0.07543181627988815,0.016111649572849274
1654945878084297200,20.204297119140627,-0.01524614728987217,0.08448629081249237,0.004926702938973904
1654945878104721000,20.224720947265624,-0.03548557683825493,0.07756227999925613,0.0001331541279796511
1654945878124940800,20.24494091796875,-0.04081173986196518,0.0706382617354393,-0.004660394508391619
1654945878145214500,20.26521435546875,-0.027496326714754105,0.04826837033033371,-0.008921326138079166
1654945878165547500,20.285547607421876,-0.01311568170785904,0.027496326714754105,-0.004127778112888336
1654945878185933300,20.305933349609376,-0.004061201121658087,-0.00399462366476655,0.004394086077809334
1654945878206171600,20.326171630859374,0.002862813649699092,-0.03222329914569855,0.006524552125483751
1654945878226502700,20.346502685546874,0.002862813649699092,-0.03808208182454109,0.013448567129671574
1654945878246818000,20.366818115234373,-0.0019307348411530256,-0.024766668677330017,0.02197043038904667
1654945878267167700,20.387167724609377,0.003928046673536301,-0.021038351580500603,0.02197043038904667
1654945878287441400,20.40744140625,0.01298252772539854,-0.016244804486632347,0.012383334338665009
1654945878307826400,20.427826416015623,0.01244991086423397,-0.019440501928329468,-0.0025299284607172012
1654945878328245200,20.448245361328127,0.0007323477184399962,-0.03914731368422508,-0.014247491955757141
1654945878348641300,20.468641357421873,-0.005126433912664652,-0.04287562891840935,-0.021171506494283676
1654945878368726500,20.4887265625,0.0012649642303586006,-0.04873441159725189,-0.020106272771954536
1654945878389622300,20.509622314453125,0.01031944528222084,-0.05033225938677788,-0.011584409512579441
1654945878409323300,20.5293232421875,0.01511299330741167,-0.05938674136996269,-0.0009320789249613881
1654945878429677300,20.54967724609375,0.016777420416474342,-0.08608414232730865,0.009187635034322739
1654945878449947000,20.56994677734375,0.018907885998487473,-0.10579095780849457,0.014513799920678139
1654945878470299100,20.590299072265626,0.018907885998487473,-0.10579095780849457,0.017176883295178413
1654945878490620700,20.61062060546875,0.01564561016857624,-0.08555153012275696,0.02516612969338894
1654945878510934000,20.63093408203125,0.006591129116714001,-0.03914731368422508,0.02623136341571808
1654945878531229700,20.651229736328126,-0.002463351469486952,0.011983871459960938,0.007589785382151604
1654945878551514600,20.6715146484375,-0.010985215194523335,0.043474823236465454,-0.015312724746763706
1654945878571807700,20.691807861328126,-0.0173766128718853,0.04294220730662346,-0.02276935614645481
1654945878592114200,20.7121142578125,-0.015778765082359314,0.018375270068645477,-0.021171506494283676
1654945878612424700,20.7324248046875,-0.008854749612510204,-0.009853405877947807,-0.011051792651414871
1654945878632725200,20.752725341796875,-0.0019307348411530256,-0.04181039705872536,0.0027962366584688425
1654945878653040000,20.7730400390625,0.005525896325707436,-0.07276873290538788,0.021437814459204674
1654945878673351200,20.79335107421875,0.010852061212062836,-0.09567124396562576,0.034220609813928604
1654945878693723400,20.813723388671875,0.00978682842105627,-0.1020626425743103,0.036351077258586884
1654945878713978600,20.833978515625,0.006058512721210718,-0.08395367860794067,0.029959678649902344
1654945878735070700,20.85507080078125,0.003928046673536301,-0.05246272683143616,0.01664426550269127
1654945878755456500,20.87545654296875,0.0007323477184399962,-0.013581721112132072,-0.001997311832383275
1654945878774956000,20.8949560546875,-0.008854749612510204,0.021104929968714714,-0.02063889056444168
1654945878795254500,20.915254638671875,-0.01844184659421444,0.04400743916630745,-0.03342168778181076
1654945878816504800,20.9365048828125,-0.023235395550727844,0.051996685564517975,-0.03668396174907684
1654945878835876400,20.95587646484375,-0.02057231217622757,0.038148656487464905,-0.029693370684981346
1654945878856203800,20.976203857421876,-0.01524614728987217,0.00719032296910882,-0.012117025442421436
1654945878876502000,20.996501953125,-0.007789516355842352,-0.030625449493527412,0.010785484686493874
1654945878896849200,21.01684912109375,0.005525896325707436,-0.05778888985514641,0.02410089783370495
1654945878917158100,21.037158203125,0.0119172940030694,-0.06737598776817322,0.026763979345560074
1654945878940892000,21.060891845703125,0.0071237459778785706,-0.0588541254401207,0.024633513763546944
1654945878981340400,21.10134033203125,0.0012649642303586006,-0.016777420416474342,0.007589785382151604
1654945879001460000,21.1214599609375,-0.007256899960339069,0.014646953903138638,-0.012649642303586006
1654945879039046400,21.15904638671875,-0.01950708031654358,0.05359453707933426,-0.021171506494283676
1654945879059306200,21.17930615234375,-0.01950708031654358,0.046670522540807724,-0.01637795753777027
1654945879079677700,21.199677734375,-0.01844184659421444,0.02270277962088585,-0.011584409512579441
1654945879099964000,21.2199638671875,-0.010985215194523335,-0.006657706573605537,0.0001331541279796511
1654945879120307000,21.240306884765626,0.002862813649699092,-0.025299284607172012,0.013981183059513569
1654945879140656600,21.26065673828125,0.011384678073227406,-0.025831900537014008,0.01983996480703354
1654945879160920800,21.2809208984375,0.0071237459778785706,-0.009853405877947807,0.01664426550269127
1654945879181224200,21.30122412109375,-0.0035285844933241606,0.015712186694145203,0.011850717477500439
1654945879201561300,21.321561279296876,-0.009387366473674774,0.04081173986196518,0.0027962366584688425
1654945879221831400,21.34183154296875,-0.00991998240351677,0.06744256615638733,-0.009986559860408306
1654945879242191600,21.362191650390624,-0.01311568170785904,0.09087768942117691,-0.023301972076296806
1654945879262468400,21.38246826171875,-0.016843996942043304,0.10419310629367828,-0.030758604407310486
1654945879282862800,21.40286279296875,-0.023235395550727844,0.10579095780849457,-0.03129122033715248
1654945879303132700,21.423132568359375,-0.02376801148056984,0.08768199384212494,-0.02596505545079708
1654945879323463400,21.44346337890625,-0.01844184659421444,0.060518551617860794,-0.013182258233428001
1654945879343810000,21.46381005859375,-0.00991998240351677,0.025365861132740974,0.005459319334477186
1654945879364139000,21.484138916015624,0.00019973119196947664,-0.0002663082559593022,0.017176883295178413
1654945879384424400,21.504424560546877,0.006058512721210718,-0.012516488321125507,0.01770949922502041
1654945879404690200,21.524690185546874,0.004993279930204153,-0.021570969372987747,0.010252867825329304
1654945879425205800,21.545205810546875,0.004460663069039583,-0.024766668677330017,0.007057168986648321
1654945879445239800,21.56523974609375,0.004460663069039583,-0.015712186694145203,0.004926702938973904
1654945879465708800,21.585708740234374,0.004460663069039583,-0.00452724052593112,-0.005193010903894901
1654945879485949000,21.605948974609376,0.0007323477184399962,0.018375270068645477,-0.013182258233428001
1654945879506188800,21.626188720703126,-0.004061201121658087,0.03655080869793892,-0.01637795753777027
1654945879526564600,21.646564697265624,-0.01045259926468134,0.0386812724173069,-0.01957365684211254
1654945879546892500,21.666892578125,-0.01364829856902361,0.029626794159412384,-0.0185084231197834
1654945879567392000,21.68739208984375,-0.007789516355842352,0.006657706573605537,-0.009986559860408306
1654945879587522600,21.7075224609375,0.003395430278033018,-0.015712186694145203,0.000665770610794425
1654945879607866600,21.72786669921875,0.011384678073227406,-0.022103585302829742,0.010252867825329304
1654945879628132400,21.74813232421875,0.011384678073227406,-0.019973119720816612,0.015046416781842709
1654945879648435000,21.76843505859375,0.005525896325707436,-0.015179570764303207,0.01664426550269127
1654945879668752100,21.788752197265627,0.003928046673536301,-0.008255556225776672,0.015046416781842709
1654945879689024500,21.8090244140625,0.004460663069039583,-0.0007989247678779066,0.013448567129671574
1654945879709323800,21.82932373046875,0.004460663069039583,0.010918638668954372,0.00226362026296556
1654945879729651000,21.84965087890625,0.0071237459778785706,0.014646953903138638,-0.01744319126009941
1654945879749983700,21.869983642578124,0.004993279930204153,-0.0007989247678779066,-0.029693370684981346
1654945879770325800,21.89032568359375,0.003395430278033018,-0.03328853100538254,-0.02596505545079708
1654945879790646500,21.910646484375,0.003928046673536301,-0.0689738392829895,-0.01637795753777027
1654945879810947000,21.930947021484375,0.010852061212062836,-0.10898665338754654,-0.005193010903894901
1654945879831287000,21.951287109375,0.023168819025158882,-0.13188916444778442,0.008122402243316174
1654945879851569200,21.971569091796876,0.03648423030972481,-0.13668271899223328,0.01877473294734955
1654945879871900200,21.991900146484376,0.03861469775438309,-0.11910636723041534,0.02090519852936268
1654945879892202500,22.012202392578125,0.025299284607172012,-0.07862751185894012,0.019307348877191544
1654945879912517400,22.032517333984377,0.011384678073227406,-0.04181039705872536,0.015046416781842709
1654945879932800500,22.052800537109373,-0.004061201121658087,0.00133154122158885,0.011850717477500439
1654945879953131300,22.07313134765625,-0.007789516355842352,0.03228987753391266,0.0027962366584688425
1654945879973431800,22.093431884765625,-0.01364829856902361,0.0599859356880188,-0.004127778112888336
1654945879993766400,22.113766357421873,-0.02483324520289898,0.10046479105949402,-0.004127778112888336
1654945880014052000,22.134052001953126,-0.03015941008925438,0.14047759771347046,-0.004127778112888336
1654945880034373000,22.154373046875,-0.03122464381158352,0.178293377161026,-0.009986559860408306
1654945880054689300,22.174689208984375,-0.02909417636692524,0.1985328048467636,-0.015312724746763706
1654945880075044000,22.195044189453125,-0.02483324520289898,0.18202169239521027,-0.013182258233428001
1654945880096230400,22.21623046875,-0.018974462524056435,0.1468690037727356,-0.009453942999243736
1654945880115589400,22.23558935546875,-0.01524614728987217,0.1143793985247612,-0.006258244160562754
1654945880135917000,22.2559169921875,-0.016843996942043304,0.09673647582530975,0.0001331541279796511
1654945880156231200,22.276231201171875,-0.014713531360030174,0.08981245756149292,0.011318100616335869
1654945880176551000,22.296551025390624,-0.01364829856902361,0.09354077279567719,0.015046416781842709
1654945880196939800,22.316939697265624,-0.018974462524056435,0.09780170768499374,0.008122402243316174
1654945880217265000,22.337264892578126,-0.02270277962088585,0.09460600465536118,0.0001331541279796511
1654945880240062200,22.360062255859376,-0.016843996942043304,0.08022536337375641,-0.004660394508391619
1654945880261103000,22.38110302734375,-0.01844184659421444,0.06584471464157104,-0.012117025442421436
1654945880281145000,22.40114501953125,-0.02483324520289898,0.042409591376781464,-0.02916075475513935
1654945880318766000,22.43876611328125,-0.006724283564835787,-0.0077229393646121025,-0.028628136962652206
1654945880339068000,22.45906787109375,0.006591129116714001,-0.023701434955000877,-0.006258244160562754
1654945880359318800,22.47931884765625,0.008188978768885136,-0.027429750189185143,0.009720250964164734
1654945880379668500,22.49966845703125,0.001797580742277205,-0.022636201232671738,0.016111649572849274
1654945880399943700,22.519943603515625,0.0007323477184399962,-0.027962366119027138,0.020372580736875534
1654945880420261000,22.54026123046875,0.0007323477184399962,-0.04394086077809334,0.020372580736875534
1654945880440567000,22.560567138671875,-0.0008655018173158169,-0.04926702752709389,0.016111649572849274
1654945880460952800,22.580952880859375,0.001797580742277205,-0.04553871229290962,0.007057168986648321
1654945880481214000,22.6012138671875,0.004460663069039583,-0.03275591507554054,-0.007323476951569319
1654945880501567000,22.62156689453125,-0.0003328853053972125,-0.026364516466856003,-0.021171506494283676
1654945880521814300,22.641814208984375,-0.0019307348411530256,-0.029027599841356277,-0.02703028731048107
1654945880542146000,22.66214599609375,0.003395430278033018,-0.06471290439367294,-0.020106272771954536
1654945880562497800,22.682497802734375,0.01244991086423397,-0.11164973676204681,-0.005725627299398184
1654945880582769400,22.702769287109376,0.023168819025158882,-0.14999812841415405,0.010785484686493874
1654945880603076600,22.72307666015625,0.028494983911514282,-0.1671084314584732,0.02516612969338894
1654945880623412500,22.74341259765625,0.023701434955000877,-0.1681736707687378,0.03581846132874489
1654945880643718700,22.76371875,0.01298252772539854,-0.14946550130844116,0.041677240282297134
1654945880664011000,22.784010986328123,0.0092542115598917,-0.12603038549423218,0.04434032365679741
1654945880684348400,22.804348388671876,0.010852061212062836,-0.10632357001304626,0.03794892504811287
1654945880704652500,22.824652587890625,0.01298252772539854,-0.08821461349725723,0.016111649572849274
1654945880724979200,22.844979248046876,0.01031944528222084,-0.06311506032943726,-0.011051792651414871
1654945880745305900,22.865305908203126,0.006591129116714001,-0.03648423030972481,-0.02809552103281021
1654945880765570300,22.8855703125,0.001797580742277205,-0.03541899845004082,-0.03508611395955086
1654945880785953000,22.905953125,0.003928046673536301,-0.04394086077809334,-0.03721657767891884
1654945880806329000,22.9263291015625,0.016244804486632347,-0.05938674136996269,-0.03235645219683647
1654945880826583300,22.946583251953125,0.026364516466856003,-0.08555153012275696,-0.013182258233428001
1654945880846916600,22.96691650390625,0.025299284607172012,-0.10738880187273026,0.010785484686493874
1654945880867245000,22.9872451171875,0.01244991086423397,-0.12123683094978333,0.03209014609456062
1654945880887595000,23.007594970703124,0.003928046673536301,-0.13082392513751984,0.044872939586639404
1654945880907880700,23.027880615234373,0.0071237459778785706,-0.12975870072841644,0.04860125854611397
1654945880928157700,23.04815771484375,0.01511299330741167,-0.11644328385591507,0.04274247586727142
1654945880948484600,23.068484619140627,0.01298252772539854,-0.09726908802986145,0.01983996480703354
1654945880968872200,23.0888720703125,-0.0013981183292344213,-0.07383396476507187,-0.008921326138079166
1654945880989110300,23.1091103515625,-0.01364829856902361,-0.04660394415259361,-0.02596505545079708
1654945881009358600,23.129358642578126,-0.012050448916852474,-0.019973119720816612,-0.029693370684981346
1654945881029700600,23.14970068359375,-0.009387366473674774,-0.011983871459960938,-0.03342168778181076
1654945881050049500,23.170049560546875,-0.010985215194523335,-0.025831900537014008,-0.03342168778181076
1654945881070361600,23.190361572265626,-0.010985215194523335,-0.04713656008243561,-0.0185084231197834
1654945881090617000,23.2106171875,-0.0035285844933241606,-0.07163692265748978,0.008655018173158169
1654945881110975700,23.230975830078126,0.0012649642303586006,-0.09354077279567719,0.037416309118270874
1654945881131300900,23.25130078125,-0.002463351469486952,-0.10419310629367828,0.05073172226548195
1654945881151608000,23.271608154296874,-0.010985215194523335,-0.09939955919981003,0.048068638890981674
1654945881171954000,23.291953857421873,-0.011517832055687904,-0.0919429287314415,0.043807707726955414
1654945881192258800,23.3122587890625,-0.007256899960339069,-0.08555153012275696,0.037416309118270874
1654945881212465700,23.332465576171874,-0.011517832055687904,-0.07596442848443985,0.02410089783370495
1654945881232847000,23.35284716796875,-0.02163754589855671,-0.04660394415259361,0.006524552125483751
1654945881253132300,23.37313232421875,-0.02163754589855671,-0.011451254598796368,0.0017310036346316338
1654945881273490200,23.393490234375,-0.017909230664372444,0.011983871459960938,0.0017310036346316338
1654945881293759500,23.413759521484376,-0.03228987753391266,0.05359453707933426,-0.011051792651414871
1654945881314080300,23.434080322265626,-0.04507267102599144,0.1132475882768631,-0.02809552103281021
1654945881334393300,23.454393310546877,-0.043474823236465454,0.16338011622428894,-0.03342168778181076
1654945881355460600,23.475460693359373,-0.04400743916630745,0.19427187740802765,-0.03668396174907684
1654945881375931400,23.495931396484377,-0.044540055096149445,0.19267402589321136,-0.03561872988939285
1654945881395317800,23.51531787109375,-0.03761604055762291,0.15911918878555298,-0.02489982172846794
1654945881415649800,23.53564990234375,-0.03015941008925438,0.10525833815336227,-0.015312724746763706
1654945881435960300,23.555960205078126,-0.03015941008925438,0.0386812724173069,-0.006258244160562754
1654945881457634600,23.577634521484374,-0.030692026019096375,-0.022636201232671738,0.007057168986648321
1654945881478181400,23.598181396484375,-0.02270277962088585,-0.07383396476507187,0.020372580736875534
1654945881517176800,23.6371767578125,0.005525896325707436,-0.12869346141815186,0.028894444927573204
1654945881538302500,23.658302490234377,0.011384678073227406,-0.11164973676204681,0.03209014609456062
1654945881557811000,23.67781103515625,0.0012649642303586006,-0.06524552404880524,0.026763979345560074
1654945881581205500,23.70120556640625,-0.01950708031654358,0.008255556225776672,0.00226362026296556
1654945881618802000,23.738802001953125,-0.039213892072439194,0.18308693170547485,-0.05053199082612991
1654945881639122400,23.759122314453126,-0.04400743916630745,0.2321542203426361,-0.05958647280931473
1654945881659413800,23.779413818359377,-0.03548557683825493,0.19800019264221191,-0.05639077350497246
1654945881679733800,23.799733642578126,-0.01844184659421444,0.1149120107293129,-0.03342168778181076
1654945881700032300,23.8200322265625,-0.005126433912664652,0.022170161828398705,0.0033288532868027687
1654945881720410600,23.84041064453125,-0.002463351469486952,-0.04607132822275162,0.03528584539890289
1654945881740655400,23.8606552734375,0.0007323477184399962,-0.08288844674825668,0.05286218971014023
1654945881760989000,23.880989013671876,0.010852061212062836,-0.09993217140436172,0.04860125854611397
1654945881781304000,23.901303955078124,0.016244804486632347,-0.08768199384212494,0.027829213067889214
1654945881801682400,23.921682373046874,0.019440501928329468,-0.06204982474446297,0.011318100616335869
1654945881821914400,23.941914306640626,0.005525896325707436,-0.021570969372987747,0.008655018173158169
1654945881842341400,23.96234130859375,-0.014713531360030174,0.04613790661096573,-0.0003994623839389533
1654945881862637300,23.98263720703125,-0.025365861132740974,0.1260969638824463,-0.02703028731048107
1654945881882860300,24.0028603515625,-0.032822493463754654,0.21298003196716309,-0.054792921990156174
1654945881903175200,24.023175048828126,-0.03015941008925438,0.2566545903682709,-0.06651048362255096
1654945881923531800,24.04353173828125,-0.021104929968714714,0.19160878658294678,-0.061184320598840714
1654945881943805000,24.063804931640625,-0.00991998240351677,0.06850779801607132,-0.04840152710676193
1654945881964126500,24.08412646484375,0.0012649642303586006,-0.05246272683143616,-0.0238345880061388
1654945881984475000,24.104474853515626,0.01298252772539854,-0.1457371860742569,0.0017310036346316338
1654945882004654600,24.124654541015627,0.021038351580500603,-0.20652204751968384,0.022503048181533813
1654945882025292500,24.14529248046875,0.028494983911514282,-0.2416747361421585,0.03794892504811287
1654945882045305000,24.16530517578125,0.030092833563685417,-0.2501966059207916,0.044872939586639404
1654945882065601300,24.185601318359375,0.030625449493527412,-0.23901166021823883,0.04220985993742943
1654945882085973500,24.205973388671875,0.03435376659035683,-0.21664176881313324,0.041677240282297134
1654945882106353200,24.226353271484374,0.026364516466856003,-0.16065046191215515,0.03688369318842888
1654945882126570000,24.246570068359375,0.004993279930204153,-0.06258244067430496,0.017176883295178413
1654945882146925800,24.26692578125,-0.012050448916852474,0.05252930521965027,-0.00359516148455441
1654945882167215000,24.287215087890626,-0.021104929968714714,0.1676410436630249,-0.019041040912270546
1654945882187513600,24.307513671875,-0.026431094855070114,0.24546962976455688,-0.03508611395955086
1654945882207859200,24.327859130859373,-0.02376801148056984,0.21351264417171478,-0.04946675896644592
1654945882228136000,24.348135986328124,-0.01258306484669447,0.10579095780849457,-0.04893414303660393
1654945882248494000,24.368494140625,-0.0029959678649902344,-0.0023967742454260588,-0.027562905102968216
1654945882268756200,24.388756103515625,0.006058512721210718,-0.08342105895280838,0.004926702938973904
1654945882289357800,24.40935791015625,0.014580377377569675,-0.12816084921360016,0.0347532257437706
1654945882309365200,24.429365234375,0.022636201232671738,-0.13881318271160126,0.04966649040579796
1654945882329700400,24.449700439453125,0.019440501928329468,-0.12070421874523163,0.048068638890981674
1654945882350912500,24.47091259765625,0.014047760516405106,-0.10579095780849457,0.037416309118270874
1654945882370315300,24.490315185546876,0.021570969372987747,-0.0807579755783081,0.03262276202440262
1654945882390643000,24.510642822265623,0.022636201232671738,-0.030092833563685417,0.02410089783370495
1654945882410926000,24.530926025390624,0.005525896325707436,0.03761604055762291,-0.0030625448562204838
1654945882431328800,24.551328857421876,-0.017909230664372444,0.1127149686217308,-0.02916075475513935
1654945882451608000,24.571608154296875,-0.03548557683825493,0.19214141368865967,-0.04201012849807739
1654945882471922200,24.591922119140627,-0.03761604055762291,0.22949114441871643,-0.04627105966210365
1654945882492283100,24.612283203125,-0.027496326714754105,0.19480448961257935,-0.04520582780241966
1654945882512587300,24.632587158203126,-0.01258306484669447,0.10099740326404572,-0.027562905102968216
1654945882532880400,24.65288037109375,-0.0013981183292344213,-0.008788172155618668,-0.004660394508391619
1654945882553132300,24.67313232421875,0.006591129116714001,-0.10153002291917801,0.018242115154862404
1654945882573485600,24.693485595703127,0.016777420416474342,-0.1681736707687378,0.03954677656292915
1654945882593782300,24.7137822265625,0.03275591507554054,-0.20705467462539673,0.054460037499666214
1654945882614106400,24.7341064453125,0.04394086077809334,-0.20758728682994843,0.0555252730846405
1654945882634362600,24.754362548828126,0.04234301298856735,-0.17616291344165802,0.043807707726955414
1654945882655679200,24.77567919921875,0.03648423030972481,-0.132954403758049,0.024633513763546944
1654945882675970600,24.795970458984375,0.024766668677330017,-0.0812905952334404,0.005991935729980469
1654945882695337200,24.815337158203125,0.005525896325707436,-0.017842652276158333,-0.013714875094592571
1654945882715695400,24.8356953125,-0.005126433912664652,0.051996685564517975,-0.033954303711652756
1654945882735953200,24.855953125,-0.010985215194523335,0.13355359435081482,-0.0414775125682354
1654945882756293400,24.87629345703125,-0.01631138101220131,0.20712125301361084,-0.04467320814728737
1654945882776582000,24.896581787109376,-0.01258306484669447,0.20172850787639618,-0.0515972264111042
1654945882796917800,24.916917724609377,-0.008322132751345634,0.1255643367767334,-0.04680367559194565
1654945882820447700,24.94044775390625,-0.010985215194523335,0.038148656487464905,-0.02596505545079708
1654945882840830000,24.960829833984373,-0.006724283564835787,-0.04074516147375107,0.00226362026296556
1654945882861099000,24.98109912109375,0.003395430278033018,-0.07862751185894012,0.03209014609456062
1654945882881189400,25.001189453125,0.016244804486632347,-0.07543181627988815,0.04647079110145569
1654945882918809900,25.038809814453124,0.004993279930204153,-0.03808208182454109,0.031024912372231483
1654945882939127800,25.0591279296875,-0.007256899960339069,-0.016777420416474342,0.008655018173158169
1654945882959465500,25.079465576171874,-0.01045259926468134,0.02589847706258297,-0.0238345880061388
1654945882979746000,25.09974609375,-0.00991998240351677,0.09460600465536118,-0.05053199082612991
1654945883000070100,25.120070068359375,-0.01524614728987217,0.15485824644565582,-0.05852124094963074
1654945883020345000,25.140344970703126,-0.02163754589855671,0.17563030123710632,-0.05639077350497246
1654945883040676400,25.16067626953125,-0.024300629273056984,0.14367330074310303,-0.05532554164528847
1654945883061003500,25.18100341796875,-0.024300629273056984,0.0807579755783081,-0.04733629152178764
1654945883081307100,25.20130712890625,-0.02057231217622757,0.012516488321125507,-0.025432437658309937
1654945883101656300,25.22165625,-0.01311568170785904,-0.04181039705872536,0.007589785382151604
1654945883122028300,25.2420283203125,-0.006191667169332504,-0.07163692265748978,0.0347532257437706
1654945883142367200,25.2623671875,0.0012649642303586006,-0.08555153012275696,0.040612008422613144
1654945883162670800,25.2826708984375,0.001797580742277205,-0.0807579755783081,0.02942706272006035
1654945883182908700,25.30290869140625,0.0007323477184399962,-0.06204982474446297,0.010252867825329304
1654945883203237400,25.3232373046875,-0.002463351469486952,-0.028494983911514282,-0.011584409512579441
1654945883223489000,25.343489013671874,-0.014180914498865604,0.02483324520289898,-0.03448691964149475
1654945883243894800,25.363894775390627,-0.02270277962088585,0.0812905952334404,-0.05639077350497246
1654945883264180200,25.38418017578125,-0.023235395550727844,0.13089050352573395,-0.06810833513736725
1654945883284401700,25.404401611328126,-0.01844184659421444,0.16071702539920807,-0.06544525176286697
1654945883305007600,25.425007568359376,-0.011517832055687904,0.11757509410381317,-0.05745600536465645
1654945883325058000,25.44505810546875,-0.01311568170785904,0.02483324520289898,-0.03448691964149475
1654945883345556500,25.465556396484374,-0.01950708031654358,-0.0583215095102787,-0.004127778112888336
